Time(s),Position(V)
0.358000,-5.185110
3.382000,-5.195553
6.380000,-5.185467
9.381000,-5.182553
12.381000,-5.186096
15.381000,-5.176465
18.380000,-5.142970
21.381000,-5.108802
24.380000,-5.076181
27.379000,-5.027667
30.380000,-4.992642
33.380000,-4.935304
36.379000,-4.891264
39.379000,-4.870847
42.379000,-4.818386
45.377000,-4.751362
48.377000,-4.672726
51.378000,-4.613443
54.378000,-4.569834
57.378000,-4.525754
60.378000,-4.449157
63.376000,-4.350426
66.376000,-4.273221
69.376000,-4.221498
72.376000,-4.144892
75.376000,-4.055697
78.376000,-3.953981
81.376000,-3.870664
84.376000,-3.810174
87.374000,-3.716879
90.375000,-3.589433
93.375000,-3.493871
96.375000,-3.421649
99.375000,-3.308158
102.373000,-3.179462
105.373000,-3.073307
108.374000,-2.988813
111.374000,-2.894940
114.374000,-2.769140
117.372000,-2.643428
120.372000,-2.539527
123.372000,-2.448537
126.372000,-2.332979
129.373000,-2.196766
132.373000,-2.080110
135.371000,-1.981339
138.371000,-1.881160
141.371000,-1.762522
144.370000,-1.631537
147.371000,-1.504724
150.371000,-1.396917
153.371000,-1.290354
156.369000,-1.190954
159.369000,-1.073914
162.369000,-0.939567
165.369000,-0.816520
168.370000,-0.724272
171.370000,-0.594389
174.368000,-0.502539
177.368000,-0.375753
180.368000,-0.270091
183.368000,-0.147336
186.369000,-0.039073
189.367000,0.072143
192.367000,0.184438
195.367000,0.286942
198.366000,0.384041
201.366000,0.490903
204.366000,0.596755
207.367000,0.700731
210.367000,0.793801
213.365000,0.873288
216.365000,0.980731
219.365000,1.067339
222.365000,1.160345
225.366000,1.245284
228.364000,1.329359
231.364000,1.413622
234.364000,1.491225
237.364000,1.567434
240.364000,1.638030
243.364000,1.715970
246.363000,1.789385
249.363000,1.854767
252.362000,1.909321
255.362000,1.980271
258.362000,2.041349
261.362000,2.098559
264.362000,2.147708
267.362000,2.196375
270.362000,2.252017
273.362000,2.295493
276.360000,2.338727
279.360000,2.356248
282.360000,2.401526
285.360000,2.429833
288.360000,2.458263
291.360000,2.477106
294.360000,2.498342
297.360000,2.513110
300.358000,2.528785
303.359000,2.516101
306.359000,2.538259
309.359000,2.521421
312.359000,2.527534
315.357000,2.536063
318.357000,2.511291
321.357000,2.503088
324.358000,2.491465
327.358000,2.473982
330.358000,2.457035
333.356000,2.436499
336.357000,2.410514
339.355000,2.382020
342.356000,2.351363
345.356000,2.316798
348.355000,2.276507
351.355000,2.233813
354.355000,2.189355
357.355000,2.140903
360.355000,2.091434
363.354000,2.039252
366.354000,1.982382
369.354000,1.922559
372.354000,1.860311
375.354000,1.798801
378.354000,1.731947
381.353000,1.663710
384.353000,1.594460
387.353000,1.522717
390.353000,1.447290
393.353000,1.372839
396.351000,1.295657
399.351000,1.214675
402.352000,1.135464
405.352000,1.054659
408.352000,0.969095
411.352000,0.881195
414.350000,0.796188
417.350000,0.706279
420.351000,0.616265
423.350000,0.523480
426.350000,0.429277
429.350000,0.332831
432.350000,0.235141
435.348000,0.136832
438.348000,0.036911
441.349000,-0.063220
444.349000,-0.166621
447.349000,-0.267830
450.347000,-0.366836
453.347000,-0.472794
456.347000,-0.563556
459.348000,-0.673025
462.348000,-0.778269
465.348000,-0.885264
468.346000,-0.996603
471.347000,-1.112644
474.345000,-1.219883
477.345000,-1.315544
480.346000,-1.409947
483.345000,-1.508864
486.345000,-1.617436
489.345000,-1.732522
492.345000,-1.850255
495.345000,-1.952487
498.343000,-2.041390
501.344000,-2.130442
504.344000,-2.233745
507.344000,-2.353610
510.344000,-2.465629
513.342000,-2.551506
516.343000,-2.632753
519.344000,-2.725171
522.342000,-2.836969
525.342000,-2.949920
528.342000,-3.032343
531.342000,-3.103368
534.342000,-3.189500
537.341000,-3.305051
540.341000,-3.407552
543.341000,-3.478723
546.341000,-3.545135
549.341000,-3.625090
552.341000,-3.730188
555.339000,-3.819454
558.340000,-3.881950
561.340000,-3.939129
564.340000,-4.011238
567.340000,-4.106179
570.338000,-4.184206
573.338000,-4.239216
576.338000,-4.288896
579.339000,-4.341030
582.339000,-4.414612
585.337000,-4.494951
588.337000,-4.548496
591.337000,-4.588436
594.337000,-4.628353
597.338000,-4.669313
600.338000,-4.719530
603.336000,-4.781553
606.336000,-4.836179
609.336000,-4.875636
612.336000,-4.905096
615.336000,-4.930531
618.335000,-4.955983
621.335000,-4.981244
624.335000,-5.013077
627.335000,-5.044814
630.335000,-5.075732
633.333000,-5.101208
636.334000,-5.125402
639.334000,-5.140652
642.334000,-5.152274
645.334000,-5.161368
648.332000,-5.159740
651.332000,-5.166328
654.332000,-5.150847
657.333000,-5.126370
660.333000,-5.146839
663.333000,-5.117848
666.331000,-5.102170
669.331000,-5.085400
672.331000,-5.058072
675.332000,-5.029159
678.332000,-4.994624
681.330000,-4.963631
684.330000,-4.942609
687.330000,-4.916257
690.330000,-4.891549
693.330000,-4.866930
696.329000,-4.834435
699.329000,-4.794627
702.329000,-4.742680
705.329000,-4.682482
708.329000,-4.630369
711.329000,-4.592941
714.329000,-4.556033
717.329000,-4.519104
720.327000,-4.472212
723.327000,-4.406011
726.327000,-4.327242
729.327000,-4.271889
732.327000,-4.226285
735.327000,-4.179032
738.327000,-4.123322
741.327000,-4.048728
744.327000,-3.961450
747.325000,-3.897370
750.325000,-3.847262
753.326000,-3.792939
756.326000,-3.724987
759.326000,-3.629248
762.324000,-3.543530
765.324000,-3.480079
768.324000,-3.422462
771.324000,-3.357209
774.325000,-3.271084
777.323000,-3.169379
780.323000,-3.087693
783.323000,-3.025704
786.323000,-2.963055
789.323000,-2.892513
792.322000,-2.798365
795.322000,-2.692710
798.322000,-2.613407
801.322000,-2.546445
804.322000,-2.479275
807.320000,-2.404860
810.320000,-2.313085
813.321000,-2.213280
816.321000,-2.122556
819.321000,-2.047914
822.321000,-1.979411
825.319000,-1.908223
828.319000,-1.830375
831.320000,-1.745586
834.320000,-1.655466
837.320000,-1.566526
840.318000,-1.485014
843.318000,-1.410865
846.318000,-1.340809
849.318000,-1.270124
852.319000,-1.198140
855.319000,-1.124953
858.318000,-1.048129
861.318000,-0.966409
864.316000,-0.888486
867.316000,-0.828234
870.317000,-0.765001
873.317000,-0.678947
876.317000,-0.606372
879.315000,-0.562876
882.315000,-0.507509
885.316000,-0.424110
888.314000,-0.365343
891.315000,-0.293622
894.315000,-0.261945
897.315000,-0.176255
900.315000,-0.120990
903.313000,-0.064681
906.313000,-0.010807
909.314000,0.041378
912.314000,0.090524
915.314000,0.139007
918.314000,0.187620
921.312000,0.233614
924.312000,0.274564
927.312000,0.315562
930.313000,0.356478
933.313000,0.390041
936.311000,0.397934
939.311000,0.454862
942.311000,0.491137
945.311000,0.518571
948.312000,0.544138
951.310000,0.571069
954.311000,0.596096
957.311000,0.620245
960.309000,0.636287
963.309000,0.652353
966.309000,0.666148
969.310000,0.683622
972.310000,0.691882
975.309000,0.702869
978.309000,0.709580
981.309000,0.712646
984.308000,0.717320
987.309000,0.711643
990.309000,0.715770
993.307000,0.710821
996.307000,0.707377
999.307000,0.699670
1002.307000,0.690108
1005.307000,0.679406
1008.306000,0.668341
1011.306000,0.649328
1014.306000,0.631236
1017.306000,0.607630
1020.306000,0.581111
1023.304000,0.557505
1026.305000,0.531666
1029.305000,0.505116
1032.305000,0.480150
1035.305000,0.450721
1038.303000,0.420405
1041.303000,0.386318
1044.303000,0.352993
1047.303000,0.320297
1050.303000,0.282930
1053.303000,0.245145
1056.303000,0.205664
1059.303000,0.164622
1062.301000,0.122367
1065.302000,0.076818
1068.302000,0.031693
1071.302000,-0.013560
1074.302000,-0.064552
1077.302000,-0.114599
1080.300000,-0.160125
1083.300000,-0.211899
1086.301000,-0.266705
1089.301000,-0.314273
1092.301000,-0.359241
1095.299000,-0.423576
1098.299000,-0.477002
1101.299000,-0.523425
1104.300000,-0.586339
1107.300000,-0.645394
1110.298000,-0.702029
1113.298000,-0.765763
1116.298000,-0.810737
1119.298000,-0.884020
1122.298000,-0.949449
1125.297000,-1.015993
1128.297000,-1.081705
1131.297000,-1.145088
1134.297000,-1.208080
1137.297000,-1.265619
1140.297000,-1.322132
1143.296000,-1.379501
1146.296000,-1.435701
1149.296000,-1.493523
1152.296000,-1.554655
1155.296000,-1.619921
1158.294000,-1.689719
1161.294000,-1.761149
1164.296000,-1.831579
1167.294000,-1.895407
1170.294000,-1.952929
1173.293000,-2.005403
1176.293000,-2.056195
1179.293000,-2.107686
1182.294000,-2.162608
1185.294000,-2.223706
1188.294000,-2.292478
1191.292000,-2.364594
1194.292000,-2.429367
1197.292000,-2.484109
1200.292000,-2.534604
1203.293000,-2.576941
1206.291000,-2.619026
1209.291000,-2.666670
1212.291000,-2.716758
1215.291000,-2.770238
1218.291000,-2.834182
1221.292000,-2.899574
1224.290000,-2.951031
1227.290000,-2.994208
1230.290000,-3.031677
1233.290000,-3.062969
1236.290000,-3.096219
1239.288000,-3.132287
1242.289000,-3.172306
1245.289000,-3.218164
1248.289000,-3.267701
1251.289000,-3.322688
1254.288000,-3.364236
1257.288000,-3.400984
1260.287000,-3.429710
1263.287000,-3.454784
1266.287000,-3.478329
1269.287000,-3.497124
1272.287000,-3.520458
1275.286000,-3.540107
1278.286000,-3.561017
1281.287000,-3.580945
1284.285000,-3.605040
1287.285000,-3.626555
1290.285000,-3.648166
1293.285000,-3.670483
1296.285000,-3.691818
1299.286000,-3.709886
1302.284000,-3.725136
1305.284000,-3.739458
1308.283000,-3.744789
1311.283000,-3.757890
1314.283000,-3.757601
1317.283000,-3.762870
1320.284000,-3.757329
1323.284000,-3.759131
1326.282000,-3.760691
1329.282000,-3.744778
1332.282000,-3.738819
1335.282000,-3.726452
1338.283000,-3.713677
1341.281000,-3.698729
1344.281000,-3.686396
1347.281000,-3.665054
1350.281000,-3.648040
1353.281000,-3.623911
1356.279000,-3.602358
1359.280000,-3.580795
1362.280000,-3.560059
1365.280000,-3.541528
1368.280000,-3.522936
1371.278000,-3.500894
1374.278000,-3.481490
1377.279000,-3.467977
1380.279000,-3.442950
1383.279000,-3.417461
1386.279000,-3.395293
1389.277000,-3.367064
1392.277000,-3.330377
1395.277000,-3.287687
1398.278000,-3.240336
1401.278000,-3.190173
1404.276000,-3.146922
1407.276000,-3.109178
1410.276000,-3.075340
1413.276000,-3.047590
1416.277000,-3.013092
1419.277000,-2.980525
1422.275000,-2.941754
1425.275000,-2.900481
1428.275000,-2.850363
1431.275000,-2.790774
1434.275000,-2.732575
1437.274000,-2.678541
1440.274000,-2.632356
1443.274000,-2.590665
1446.274000,-2.552417
1449.274000,-2.514194
1452.272000,-2.473377
1455.273000,-2.426818
1458.273000,-2.376104
1461.273000,-2.316267
1464.273000,-2.252497
1467.273000,-2.192027
1470.271000,-2.135620
1473.271000,-2.087381
1476.272000,-2.042202
1479.272000,-2.000209
1482.272000,-1.956539
1485.270000,-1.911864
1488.270000,-1.863673
1491.270000,-1.809105
1494.271000,-1.755475
1497.271000,-1.696916
1500.269000,-1.638663
1503.269000,-1.582541
1506.269000,-1.528846
1509.268000,-1.475118
1512.268000,-1.433029
1515.269000,-1.388840
1518.269000,-1.342719
1521.269000,-1.301317
1524.268000,-1.255557
1527.268000,-1.211483
1530.268000,-1.164339
1533.268000,-1.119062
1536.268000,-1.070681
1539.266000,-1.024679
1542.267000,-0.975982
1545.267000,-0.931211
1548.265000,-0.885366
1551.265000,-0.861151
1554.267000,-0.802949
1557.265000,-0.771589
1560.265000,-0.734365
1563.265000,-0.680181
1566.265000,-0.643820
1569.265000,-0.608164
1572.264000,-0.573996
1575.264000,-0.565137
1578.264000,-0.516857
1581.264000,-0.488727
1584.264000,-0.440951
1587.262000,-0.415132
1590.262000,-0.388749
1593.263000,-0.378836
1596.263000,-0.352463
1599.263000,-0.306159
1602.262000,-0.283610
1605.262000,-0.279806
1608.262000,-0.270131
1611.261000,-0.220040
1614.261000,-0.201119
1617.261000,-0.183493
1620.261000,-0.166771
1623.261000,-0.153231
1626.259000,-0.151368
1629.259000,-0.134836
1632.260000,-0.112821
1635.260000,-0.103252
1638.260000,-0.102963
1641.260000,-0.085405
1644.258000,-0.074965
1647.258000,-0.074105
1650.259000,-0.085221
1653.259000,-0.068737
1656.258000,-0.080652
1659.258000,-0.066742
1662.258000,-0.067292
1665.258000,-0.081142
1668.256000,-0.086465
1671.257000,-0.097972
1674.257000,-0.100440
1677.257000,-0.108657
1680.257000,-0.119651
1683.255000,-0.127323
1686.255000,-0.136410
1689.256000,-0.149651
1692.256000,-0.153098
1695.256000,-0.173454
1698.256000,-0.188011
1701.254000,-0.204474
1704.254000,-0.219598
1707.254000,-0.236670
1710.255000,-0.258560
1713.255000,-0.275322
1716.253000,-0.294699
1719.253000,-0.316891
1722.253000,-0.340031
1725.253000,-0.356712
1728.254000,-0.387032
1731.252000,-0.410294
1734.252000,-0.436678
1737.252000,-0.463261
1740.252000,-0.482645
1743.251000,-0.512584
1746.251000,-0.519764
1749.252000,-0.572425
1752.252000,-0.603030
1755.251000,-0.632534
1758.251000,-0.663697
1761.251000,-0.696227
1764.249000,-0.726594
1767.250000,-0.764569
1770.250000,-0.784830
1773.250000,-0.825760
1776.250000,-0.860900
1779.248000,-0.899797
1782.248000,-0.938411
1785.248000,-0.975703
1788.249000,-1.013369
1791.249000,-1.053619
1794.247000,-1.092152
1797.247000,-1.129512
1800.247000,-1.168187
1803.247000,-1.204956
1806.247000,-1.241578
1809.248000,-1.277548
1812.246000,-1.310077
1815.246000,-1.346173
1818.246000,-1.378084
1821.246000,-1.412581
1824.246000,-1.445560
1827.245000,-1.477817
1830.246000,-1.515089
1833.244000,-1.552741
1836.244000,-1.591546
1839.244000,-1.630942
1842.244000,-1.673024
1845.244000,-1.715790
1848.245000,-1.757790
1851.243000,-1.800035
1854.243000,-1.837616
1857.242000,-1.874755
1860.242000,-1.909318
1863.242000,-1.942659
1866.243000,-1.972208
1869.243000,-1.999889
1872.243000,-2.027806
1875.241000,-2.052472
1878.241000,-2.081697
1881.241000,-2.109655
1884.241000,-2.137615
1887.242000,-2.166888
1890.240000,-2.195076
1893.240000,-2.226916
1896.240000,-2.260927
1899.240000,-2.295269
1902.240000,-2.328026
1905.239000,-2.361334
1908.239000,-2.391599
1911.239000,-2.419345
1914.239000,-2.443193
1917.239000,-2.465194
1920.239000,-2.483405
1923.237000,-2.503951
1926.238000,-2.520762
1929.238000,-2.538728
1932.238000,-2.552608
1935.238000,-2.565386
1938.236000,-2.577985
1941.236000,-2.592269
1944.237000,-2.601553
1947.237000,-2.613030
1950.237000,-2.623449
1953.235000,-2.635646
1956.236000,-2.644373
1959.236000,-2.652905
1962.234000,-2.661408
1965.235000,-2.670831
1968.235000,-2.677745
1971.235000,-2.680628
1974.235000,-2.688855
1977.233000,-2.684164
1980.234000,-2.688042
1983.234000,-2.692774
1986.234000,-2.682246
1989.234000,-2.671868
1992.232000,-2.689630
1995.232000,-2.681488
1998.232000,-2.683344
2001.232000,-2.668628
2004.233000,-2.679768
2007.233000,-2.661017
2010.231000,-2.654136
2013.231000,-2.642734
2016.231000,-2.636663
2019.231000,-2.640977
2022.232000,-2.621511
2025.231000,-2.607026
2028.231000,-2.598990
2031.231000,-2.585379
2034.229000,-2.576792
2037.229000,-2.563925
2040.229000,-2.551771
2043.230000,-2.539472
2046.230000,-2.522468
2049.228000,-2.515499
2052.228000,-2.497771
2055.229000,-2.477959
2058.227000,-2.459041
2061.228000,-2.442333
2064.228000,-2.422585
2067.228000,-2.396260
2070.228000,-2.371508
2073.227000,-2.345717
2076.227000,-2.314469
2079.225000,-2.284540
2082.226000,-2.255294
2085.226000,-2.221558
2088.226000,-2.192557
2091.226000,-2.161558
2094.226000,-2.134566
2097.224000,-2.108128
2100.226000,-2.082619
2103.226000,-2.057898
2106.224000,-2.032460
2109.224000,-2.011478
2112.224000,-1.987002
2115.224000,-1.962077
2118.224000,-1.936714
2121.223000,-1.909430
2124.223000,-1.881870
2127.223000,-1.850163
2130.222000,-1.822251
2133.222000,-1.789582
2136.222000,-1.755468
2139.223000,-1.721562
2142.223000,-1.686299
2145.221000,-1.650986
2148.221000,-1.616743
2151.221000,-1.584771
2154.221000,-1.548489
2157.221000,-1.517873
2160.220000,-1.483528
2163.220000,-1.453246
2166.220000,-1.429184
2169.220000,-1.403063
2172.220000,-1.371465
2175.220000,-1.348287
2178.219000,-1.319317
2181.219000,-1.291418
2184.219000,-1.267860
2187.219000,-1.240450
2190.219000,-1.210575
2193.217000,-1.185304
2196.217000,-1.155001
2199.218000,-1.127577
2202.218000,-1.102693
2205.218000,-1.073628
2208.216000,-1.044223
2211.216000,-1.017166
2214.216000,-0.992279
2217.216000,-0.959661
2220.216000,-0.933278
2223.216000,-0.907802
2226.216000,-0.881603
2229.216000,-0.859435
2232.214000,-0.836614
2235.214000,-0.807851
2238.215000,-0.789525
2241.215000,-0.764637
2244.215000,-0.745485
2247.213000,-0.724445
2250.213000,-0.707656
2253.213000,-0.686497
2256.214000,-0.669945
2259.214000,-0.653295
2262.214000,-0.637579
2265.212000,-0.622781
2268.213000,-0.604978
2271.211000,-0.599899
2274.211000,-0.592094
2277.212000,-0.581253
2280.212000,-0.577449
2283.212000,-0.567897
2286.212000,-0.535170
2289.210000,-0.525999
2292.210000,-0.531366
2295.211000,-0.525689
2298.211000,-0.517612
2301.211000,-0.515770
2304.209000,-0.504344
2307.209000,-0.475034
2310.209000,-0.497749
2313.209000,-0.487139
2316.210000,-0.487721
2319.208000,-0.476686
2322.208000,-0.472304
2325.208000,-0.461650
2328.208000,-0.468884
2331.208000,-0.482176
2334.207000,-0.467762
2337.207000,-0.488768
2340.207000,-0.489434
2343.207000,-0.491239
2346.207000,-0.504589
2349.207000,-0.507400
2352.205000,-0.507516
2355.206000,-0.517449
2358.206000,-0.522079
2361.206000,-0.513121
2364.206000,-0.538335
2367.204000,-0.546038
2370.204000,-0.559643
2373.205000,-0.556267
2376.205000,-0.575114
2379.205000,-0.587546
2382.205000,-0.599498
2385.204000,-0.613783
2388.204000,-0.626704
2391.202000,-0.640557
2394.203000,-0.650269
2397.203000,-0.666627
2400.203000,-0.680004
2403.203000,-0.695180
2406.203000,-0.711320
2409.201000,-0.726516
2412.202000,-0.744890
2415.202000,-0.758943
2418.202000,-0.778891
2421.202000,-0.795171
2424.200000,-0.809510
2427.200000,-0.830866
2430.200000,-0.850671
2433.201000,-0.867791
2436.201000,-0.890366
2439.199000,-0.909703
2442.199000,-0.930252
2445.199000,-0.955242
2448.199000,-0.974462
2451.200000,-0.997143
2454.198000,-1.020824
2457.198000,-1.039990
2460.198000,-1.062943
2463.198000,-1.085247
2466.198000,-1.108224
2469.197000,-1.128301
2472.198000,-1.149048
2475.197000,-1.170802
2478.197000,-1.193133
2481.197000,-1.213965
2484.197000,-1.237390
2487.195000,-1.254160
2490.196000,-1.274713
2493.196000,-1.292618
2496.196000,-1.311923
2499.195000,-1.331800
2502.195000,-1.352894
2505.195000,-1.371954
2508.195000,-1.389044
2511.194000,-1.406466
2514.194000,-1.424721
2517.194000,-1.444781
2520.194000,-1.460048
2523.193000,-1.477844
2526.193000,-1.497755
2529.194000,-1.518954
2532.194000,-1.533616
2535.192000,-1.555209
2538.192000,-1.576959
2541.192000,-1.595537
2544.192000,-1.615053
2547.192000,-1.635185
2550.191000,-1.653406
2553.191000,-1.674034
2556.191000,-1.692466
2559.191000,-1.711411
2562.191000,-1.731424
2565.189000,-1.748088
2568.190000,-1.767465
2571.190000,-1.784775
2574.190000,-1.798845
2577.190000,-1.814792
2580.190000,-1.827856
2583.189000,-1.843518
2586.189000,-1.855790
2589.190000,-1.867453
2592.188000,-1.878668
2595.188000,-1.891297
2598.188000,-1.903535
2601.188000,-1.913132
2604.188000,-1.921022
2607.187000,-1.932464
2610.187000,-1.931638
2613.187000,-1.944563
2616.187000,-1.950016
2619.187000,-1.957179
2622.185000,-1.963906
2625.185000,-1.967900
2628.186000,-1.969634
2631.186000,-1.979146
2634.186000,-1.980336
2637.186000,-1.975413
2640.184000,-1.985853
2643.184000,-1.991567
2646.185000,-1.985928
2649.185000,-1.993563
2652.185000,-1.983946
2655.183000,-1.983076
2658.183000,-1.994760
2661.183000,-1.986404
2664.183000,-1.972456
2667.184000,-1.987995
2670.182000,-1.978089
2673.182000,-1.969512
2676.182000,-1.963090
2679.182000,-1.983235
2682.182000,-1.967112
2685.181000,-1.957281
2688.181000,-1.947782
2691.181000,-1.942894
2694.181000,-1.946763
2697.181000,-1.951478
2700.180000,-1.923330
2703.180000,-1.917809
2706.181000,-1.919941
2709.179000,-1.901978
2712.179000,-1.894261
2715.179000,-1.884488
2718.179000,-1.875534
2721.179000,-1.864883
2724.179000,-1.856500
2727.179000,-1.845992
2730.179000,-1.836433
2733.177000,-1.822274
2736.177000,-1.812644
2739.177000,-1.795670
2742.176000,-1.783898
2745.177000,-1.770178
2748.177000,-1.759225
2751.177000,-1.736594
2754.177000,-1.720909
2757.175000,-1.705731
2760.175000,-1.689746
2763.176000,-1.671233
2766.176000,-1.650948
2769.176000,-1.632710
2772.176000,-1.617100
2775.174000,-1.599025
2778.174000,-1.580426
2781.174000,-1.563902
2784.175000,-1.542726
2787.175000,-1.531202
2790.173000,-1.511264
2793.173000,-1.492754
2796.173000,-1.479462
2799.173000,-1.456985
2802.174000,-1.447983
2805.172000,-1.429783
2808.172000,-1.413486
2811.172000,-1.399752
2814.171000,-1.385158
2817.171000,-1.366740
2820.171000,-1.350514
2823.172000,-1.330971
2826.172000,-1.321003
2829.170000,-1.299424
2832.170000,-1.287026
2835.170000,-1.269733
2838.170000,-1.255435
2841.171000,-1.240178
2844.169000,-1.221042
2847.169000,-1.206520
2850.169000,-1.190450
2853.169000,-1.171716
2856.169000,-1.173674
2859.169000,-1.138687
2862.168000,-1.122131
2865.168000,-1.107347
2868.168000,-1.090758
2871.168000,-1.074219
2874.168000,-1.055924
2877.166000,-1.043199
2880.167000,-1.027994
2883.167000,-1.013135
2886.167000,-0.996804
2889.167000,-0.983111
2892.167000,-0.967827
2895.165000,-0.950873
2898.165000,-0.940512
2901.166000,-0.924630
2904.166000,-0.909896
2907.166000,-0.899810
2910.164000,-0.884547
2913.164000,-0.872203
2916.164000,-0.861825
2919.165000,-0.869490
2922.165000,-0.852530
2925.163000,-0.829645
2928.163000,-0.819726
2931.163000,-0.814654
2934.163000,-0.804510
2937.163000,-0.796229
2940.162000,-0.788440
2943.163000,-0.779401
2946.163000,-0.791670
2949.161000,-0.789028
2952.161000,-0.769900
2955.161000,-0.769094
2958.162000,-0.746658
2961.162000,-0.761374
2964.160000,-0.738285
2967.160000,-0.735752
2970.160000,-0.748582
2973.160000,-0.744305
2976.160000,-0.720132
2979.161000,-0.727852
2982.159000,-0.734756
2985.159000,-0.719567
2988.159000,-0.723436
2991.159000,-0.733009
2994.159000,-0.732750
2997.157000,-0.716763
3000.158000,-0.737027
3003.158000,-0.734657
3006.158000,-0.743275
3009.158000,-0.736721
3012.157000,-0.739461
3015.157000,-0.751798
3018.158000,-0.742833
3021.156000,-0.754803
3024.156000,-0.761391
3027.157000,-0.765188
3030.155000,-0.744071
3033.155000,-0.765980
3036.156000,-0.763267
3039.156000,-0.785167
3042.156000,-0.789413
3045.155000,-0.797146
3048.155000,-0.802908
3051.155000,-0.806512
3054.153000,-0.815881
3057.154000,-0.828030
3060.154000,-0.833153
3063.154000,-0.842533
3066.153000,-0.855332
3069.153000,-0.862266
3072.153000,-0.866778
3075.151000,-0.880457
3078.152000,-0.887864
3081.152000,-0.902326
3084.152000,-0.904913
3087.152000,-0.921495
3090.152000,-0.936585
3093.150000,-0.947114
3096.151000,-0.959834
3099.151000,-0.970186
3102.151000,-0.982927
3105.150000,-0.997929
3108.150000,-1.006325
3111.150000,-1.021273
3114.150000,-1.035231
3117.150000,-1.047051
3120.150000,-1.058891
3123.148000,-1.070290
3126.148000,-1.087311
3129.149000,-1.101140
3132.147000,-1.112946
3135.148000,-1.126976
3138.148000,-1.140438
3141.148000,-1.152179
3144.148000,-1.165818
3147.146000,-1.180208
3150.146000,-1.190984
3153.147000,-1.203606
3156.146000,-1.217378
3159.146000,-1.230714
3162.146000,-1.244668
3165.146000,-1.253582
3168.146000,-1.265239
3171.144000,-1.279166
3174.145000,-1.290010
3177.145000,-1.300080
3180.145000,-1.311825
3183.145000,-1.322689
3186.145000,-1.332385
3189.143000,-1.345048
3192.143000,-1.354434
3195.144000,-1.366787
3198.144000,-1.376819
3201.144000,-1.385161
3204.142000,-1.394269
3207.142000,-1.406422
3210.142000,-1.414825
3213.143000,-1.424255
3216.143000,-1.433865
3219.141000,-1.445430
3222.141000,-1.454701
3225.141000,-1.460065
3228.141000,-1.466932
3231.141000,-1.471219
3234.142000,-1.488403
3237.140000,-1.495260
3240.140000,-1.505176
3243.139000,-1.514548
3246.139000,-1.522979
3249.139000,-1.528816
3252.140000,-1.537338
3255.140000,-1.543376
3258.140000,-1.548009
3261.138000,-1.557796
3264.138000,-1.566628
3267.138000,-1.574624
3270.138000,-1.577642
3273.139000,-1.583296
3276.137000,-1.589772
3279.137000,-1.592450
3282.137000,-1.600378
3285.137000,-1.608027
3288.136000,-1.600038
3291.137000,-1.606052
3294.137000,-1.618307
3297.137000,-1.599276
3300.135000,-1.610784
3303.135000,-1.620598
3306.135000,-1.630358
3309.135000,-1.624667
3312.136000,-1.610240
3315.135000,-1.619027
3318.135000,-1.626632
3321.135000,-1.609876
3324.133000,-1.633461
3327.133000,-1.615441
3330.134000,-1.635542
3333.134000,-1.614972
3336.134000,-1.628522
3339.132000,-1.613394
3342.132000,-1.630912
3345.132000,-1.618014
3348.132000,-1.604600
3351.133000,-1.609662
3354.131000,-1.600303
3357.131000,-1.591560
3360.131000,-1.588660
3363.131000,-1.602938
3366.131000,-1.586712
3369.132000,-1.583459
3372.130000,-1.583812
3375.130000,-1.565261
3378.130000,-1.560509
3381.130000,-1.553224
3384.130000,-1.542815
3387.128000,-1.554393
3390.129000,-1.537797
3393.129000,-1.528870
3396.129000,-1.531688
3399.129000,-1.519675
3402.127000,-1.498197
3405.127000,-1.492952
3408.128000,-1.488080
3411.128000,-1.473544
3414.128000,-1.478307
3417.128000,-1.477171
3420.126000,-1.454837
3423.126000,-1.445400
3426.126000,-1.434634
3429.127000,-1.424099
3432.127000,-1.426757
3435.125000,-1.410491
3438.125000,-1.402624
3441.125000,-1.414152
3444.124000,-1.385892
3447.125000,-1.377557
3450.125000,-1.366152
3453.125000,-1.359550
3456.125000,-1.346832
3459.123000,-1.333248
3462.123000,-1.332232
3465.123000,-1.316458
3468.123000,-1.304125
3471.123000,-1.301205
3474.123000,-1.286397
3477.123000,-1.278728
3480.123000,-1.267037
3483.121000,-1.257529
3486.122000,-1.245049
3489.122000,-1.237611
3492.122000,-1.230292
3495.122000,-1.212499
3498.120000,-1.205915
3501.120000,-1.196444
3504.121000,-1.183985
3507.120000,-1.174595
3510.120000,-1.163370
3513.121000,-1.149864
3516.119000,-1.142358
3519.119000,-1.129274
3522.119000,-1.120224
3525.120000,-1.124528
3528.120000,-1.110084
3531.118000,-1.094524
3534.118000,-1.097944
3537.118000,-1.068094
3540.117000,-1.073917
3543.117000,-1.050821
3546.118000,-1.039780
3549.118000,-1.031560
3552.118000,-1.020035
3555.116000,-1.011425
3558.116000,-1.000400
3561.116000,-1.003072
3564.117000,-0.982696
3567.117000,-0.972171
3570.115000,-0.967640
3573.115000,-0.955388
3576.115000,-0.952264
3579.115000,-0.956625
3582.115000,-0.932000
3585.114000,-0.931462
3588.114000,-0.917661
3591.114000,-0.912925
3594.114000,-0.900286
3597.114000,-0.893637
3600.114000,-0.888653
3603.113000,-0.887320
3606.113000,-0.879260
3609.113000,-0.871513
3612.113000,-0.881844
3615.113000,-0.868834
3618.111000,-0.866682
3621.111000,-0.862923
3624.112000,-0.852037
3627.112000,-0.849481
3630.112000,-0.840129
3633.110000,-0.836886
3636.110000,-0.855396
3639.110000,-0.839446
3642.111000,-0.838909
3645.111000,-0.856334
3648.111000,-0.826538
3651.109000,-0.841159
3654.109000,-0.836604
3657.109000,-0.812933
3660.109000,-0.841190
3663.110000,-0.836077
3666.108000,-0.832174
3669.108000,-0.830662
3672.108000,-0.839092
3675.108000,-0.835832
3678.108000,-0.833459
3681.107000,-0.825719
3684.107000,-0.824951
3687.107000,-0.836543
3690.107000,-0.836546
3693.107000,-0.839779
3696.107000,-0.841880
3699.105000,-0.849756
3702.106000,-0.836019
3705.106000,-0.837892
3708.106000,-0.851599
3711.106000,-0.834292
3714.104000,-0.854023
3717.104000,-0.862426
3720.105000,-0.854961
3723.105000,-0.865941
3726.105000,-0.854067
3729.103000,-0.877071
3732.103000,-0.883836
3735.104000,-0.873930
3738.102000,-0.883228
3741.103000,-0.897821
3744.103000,-0.906201
3747.103000,-0.891944
3750.103000,-0.897995
3753.101000,-0.924089
3756.101000,-0.925207
3759.102000,-0.925554
3762.102000,-0.935600
3765.102000,-0.944357
3768.100000,-0.948045
3771.100000,-0.954888
3774.100000,-0.962717
3777.100000,-0.970189
3780.101000,-0.974048
3783.101000,-0.980996
3786.099000,-0.992184
3789.099000,-1.000614
3792.099000,-1.005979
3795.099000,-1.016330
3798.100000,-1.025495
3801.098000,-1.034888
3804.098000,-1.037029
3807.098000,-1.046517
3810.098000,-1.052735
3813.098000,-1.061288
3816.096000,-1.067781
3819.097000,-1.080036
3822.098000,-1.083531
3825.096000,-1.090115
3828.096000,-1.102676
3831.096000,-1.109863
3834.096000,-1.120258
3837.097000,-1.128115
3840.097000,-1.130532
3843.095000,-1.138734
3846.095000,-1.147430
3849.095000,-1.158975
3852.094000,-1.163771
3855.094000,-1.172600
3858.095000,-1.176434
3861.095000,-1.189420
3864.093000,-1.193126
3867.093000,-1.200693
3870.093000,-1.209185
3873.093000,-1.216225
3876.094000,-1.220838
3879.094000,-1.230799
3882.092000,-1.239620
3885.092000,-1.242132
3888.092000,-1.241568
3891.092000,-1.255394
3894.092000,-1.259160
3897.091000,-1.268665
3900.091000,-1.262074
3903.091000,-1.279176
3906.091000,-1.288182
3909.090000,-1.291816
3912.090000,-1.294226
3915.091000,-1.295990
3918.090000,-1.296262
3921.090000,-1.306896
3924.090000,-1.314531
3927.090000,-1.311991
3930.089000,-1.321642
3933.089000,-1.327503
3936.088000,-1.332065
3939.088000,-1.331538
3942.088000,-1.317736
3945.087000,-1.338371
3948.087000,-1.335978
3951.087000,-1.352656
3954.088000,-1.346088
3957.088000,-1.355824
3960.086000,-1.357541
3963.086000,-1.339357
3966.087000,-1.360580
3969.085000,-1.362538
3972.085000,-1.346520
3975.086000,-1.370119
3978.086000,-1.369932
3981.086000,-1.373382
3984.084000,-1.373073
3987.084000,-1.373131
3990.084000,-1.372995
3993.085000,-1.358455
3996.085000,-1.379093
3999.083000,-1.375276
4002.083000,-1.379175
4005.083000,-1.371445
4008.083000,-1.356650
4011.083000,-1.359251
4014.084000,-1.376302
4017.082000,-1.374412
4020.082000,-1.356511
4023.082000,-1.361953
4026.082000,-1.358911
4029.082000,-1.358214
4032.081000,-1.359863
4035.081000,-1.357837
4038.081000,-1.369952
4041.081000,-1.355477
4044.081000,-1.351986
4047.079000,-1.363289
4050.079000,-1.356939
4053.080000,-1.336739
4056.080000,-1.337742
4059.080000,-1.330848
4062.080000,-1.342940
4065.078000,-1.329811
4068.078000,-1.329672
4071.079000,-1.325695
4074.079000,-1.322649
4077.079000,-1.319504
4080.077000,-1.304975
4083.077000,-1.300821
4086.077000,-1.303296
4089.077000,-1.295929
4092.078000,-1.308388
4095.076000,-1.288559
4098.076000,-1.292465
4101.077000,-1.279435
4104.075000,-1.273034
4107.075000,-1.268223
4110.076000,-1.268913
4113.076000,-1.269498
4116.076000,-1.250244
4119.074000,-1.249795
4122.074000,-1.243958
4125.074000,-1.249995
4128.074000,-1.245807
4131.075000,-1.227658
4134.075000,-1.224520
4137.073000,-1.210762
4140.073000,-1.222586
4143.073000,-1.208522
4146.073000,-1.213030
4149.074000,-1.197634
4152.072000,-1.200754
4155.072000,-1.180878
4158.072000,-1.173620
4161.072000,-1.172124
4164.072000,-1.171172
4167.070000,-1.156021
4170.071000,-1.147641
4173.071000,-1.138840
4176.071000,-1.131881
4179.071000,-1.125813
4182.071000,-1.121482
4185.069000,-1.139272
4188.070000,-1.110339
4191.070000,-1.120092
4194.070000,-1.104145
4197.070000,-1.101266
4200.068000,-1.099396
4203.069000,-1.093692
4206.069000,-1.083371
4209.068000,-1.084159
4212.068000,-1.065048
4215.068000,-1.075345
4218.068000,-1.053836
4221.068000,-1.050716
4224.066000,-1.044702
4227.067000,-1.051453
4230.067000,-1.029625
4233.067000,-1.024224
4236.067000,-1.013944
4239.065000,-1.024852
4242.065000,-1.012101
4245.065000,-1.017306
4248.066000,-0.998561
4251.066000,-1.001617
4254.064000,-0.977590
4257.064000,-0.979629
4260.064000,-0.992564
4263.064000,-0.967946
4266.065000,-0.980622
4269.065000,-0.954045
4272.063000,-0.964617
4275.063000,-0.961796
4278.063000,-0.960606
4281.063000,-0.951132
4284.063000,-0.949680
4287.062000,-0.941875
4290.062000,-0.933512
4293.062000,-0.929103
4296.062000,-0.938703
4299.062000,-0.944904
4302.062000,-0.923487
4305.061000,-0.937058
4308.061000,-0.930347
4311.061000,-0.916196
4314.061000,-0.928930
4317.061000,-0.910892
4320.059000,-0.924480
4323.059000,-0.901710
4326.060000,-0.905511
4329.060000,-0.898083
4332.059000,-0.914530
4335.059000,-0.914105
4338.059000,-0.909278
4341.059000,-0.906878
4344.058000,-0.920703
4347.059000,-0.910559
4350.057000,-0.912871
4353.057000,-0.924647
4356.057000,-0.924704
4359.056000,-0.903736
4362.056000,-0.919051
4365.057000,-0.917695
4368.057000,-0.908261
4371.057000,-0.924783
4374.055000,-0.923260
4377.055000,-0.923912
4380.055000,-0.924623
4383.055000,-0.933325
4386.056000,-0.917045
4389.056000,-0.926238
4392.054000,-0.929198
4395.054000,-0.925921
4398.053000,-0.945478
4401.053000,-0.925224
4404.054000,-0.946213
4407.054000,-0.950251
4410.054000,-0.930834
4413.054000,-0.954079
4416.052000,-0.954538
4419.052000,-0.965352
4422.052000,-0.961820
4425.053000,-0.947760
4428.053000,-0.971705
4431.051000,-0.972620
4434.051000,-0.957319
4437.051000,-0.983342
4440.051000,-0.980649
4443.052000,-0.992167
4446.050000,-0.996178
4449.050000,-0.998520
4452.051000,-0.991031
4455.049000,-0.980337
4458.049000,-1.003718
4461.049000,-1.009837
4464.050000,-1.014178
4467.050000,-1.003823
4470.048000,-1.012274
4473.048000,-1.026491
4476.048000,-1.031597
4479.048000,-1.016388
4482.049000,-1.037342
4485.047000,-1.039273
4488.048000,-1.044032
4491.048000,-1.048394
4494.046000,-1.050396
4497.046000,-1.051324
4500.046000,-1.043726
4503.047000,-1.065517
4506.047000,-1.071857
4509.045000,-1.073053
4512.045000,-1.082684
4515.045000,-1.083537
4518.044000,-1.089449
4521.045000,-1.091064
4524.045000,-1.089775
4527.045000,-1.098447
4530.045000,-1.108323
4533.045000,-1.112249
4536.043000,-1.115781
4539.043000,-1.118997
4542.044000,-1.126670
4545.044000,-1.116070
4548.044000,-1.123117
4551.042000,-1.134580
4554.042000,-1.138904
4557.042000,-1.139231
4560.043000,-1.131976
4563.043000,-1.132704
4566.041000,-1.151333
4569.041000,-1.153468
4572.041000,-1.159216
4575.040000,-1.160222
4578.040000,-1.162031
4581.041000,-1.159226
4584.041000,-1.169425
4587.040000,-1.163000
4590.040000,-1.174589
4593.040000,-1.172134
4596.040000,-1.175058
4599.040000,-1.167773
4602.040000,-1.166477
4605.038000,-1.189227
4608.038000,-1.184195
4611.038000,-1.190699
4614.038000,-1.189631
4617.038000,-1.193714
4620.039000,-1.184036
4623.037000,-1.183057
4626.037000,-1.197780
4629.037000,-1.198269
4632.037000,-1.201026
4635.036000,-1.202655
4638.037000,-1.193612
4641.037000,-1.180317
4644.037000,-1.180351
4647.036000,-1.182200
4650.036000,-1.190603
4653.034000,-1.205364
4656.034000,-1.192711
4659.035000,-1.194628
4662.035000,-1.209943
4665.035000,-1.208876
4668.035000,-1.198585
4671.033000,-1.199190
4674.033000,-1.193374
4677.034000,-1.193666
4680.034000,-1.192939
4683.034000,-1.188533
4686.032000,-1.203545
4689.032000,-1.184739
4692.031000,-1.199751
4695.031000,-1.191110
4698.032000,-1.191260
4701.032000,-1.202366
4704.032000,-1.188611
4707.032000,-1.190362
4710.030000,-1.178892
4713.030000,-1.168881
4716.031000,-1.193755
4719.031000,-1.180045
4722.031000,-1.188455
4725.029000,-1.181326
4728.029000,-1.180616
4731.029000,-1.173127
4734.029000,-1.178056
4737.030000,-1.170315
4740.030000,-1.165723
4743.028000,-1.179667
4746.028000,-1.162259
4749.028000,-1.172372
4752.028000,-1.154800
4755.029000,-1.158706
4758.027000,-1.146642
4761.027000,-1.163975
4764.027000,-1.148267
4767.027000,-1.164441
4770.027000,-1.148188
4773.025000,-1.133802
4776.026000,-1.148933
4779.026000,-1.142413
4782.026000,-1.124565
4785.026000,-1.123019
4788.026000,-1.136640
4791.024000,-1.121537
4794.025000,-1.132442
4797.025000,-1.108666
4800.025000,-1.115781
4803.025000,-1.112630
4806.023000,-1.118212
4809.023000,-1.094820
4812.023000,-1.114598
4815.024000,-1.091591
4818.024000,-1.105790
4821.022000,-1.088072
4824.022000,-1.091706
4827.022000,-1.081929
4830.022000,-1.067743
4833.023000,-1.079693
4836.021000,-1.077429
4839.021000,-1.053343
4842.021000,-1.053153
4845.021000,-1.065585
4848.021000,-1.048659
4851.021000,-1.048336
4854.020000,-1.044233
4857.020000,-1.032389
4860.020000,-1.048407
4863.020000,-1.034218
4866.020000,-1.038403
4869.018000,-1.019067
4872.019000,-1.030995
4875.020000,-1.029105
4878.018000,-1.010626
4881.018000,-1.023200
4884.018000,-0.998340
4887.018000,-1.024560
4890.018000,-1.004670
4893.017000,-0.993455
4896.017000,-1.010320
4899.017000,-0.989345
4902.017000,-0.983114
4905.017000,-0.990416
4908.015000,-0.979235
4911.016000,-0.977872
4914.016000,-0.996579
4917.016000,-0.983168
4920.016000,-0.992816
4923.014000,-0.978545
4926.014000,-0.980948
4929.014000,-0.957693
4932.015000,-0.959556
4935.015000,-0.976026
4938.015000,-0.955928
4941.013000,-0.974500
4944.013000,-0.967582
4947.012000,-0.948504
4950.013000,-0.962870
4953.013000,-0.949826
4956.013000,-0.962598
4959.013000,-0.947535
4962.013000,-0.945220
4965.011000,-0.955602
4968.011000,-0.934831
4971.012000,-0.932530
4974.012000,-0.951584
4977.012000,-0.945037
4980.010000,-0.934304
4983.010000,-0.951560
4986.010000,-0.928454
4989.011000,-0.951645
4992.011000,-0.929967
4995.011000,-0.924483
4998.009000,-0.922053
5001.009000,-0.923171
5004.009000,-0.945628
5007.009000,-0.928165
5010.010000,-0.949660
5013.008000,-0.923987
5016.008000,-0.930330
5019.008000,-0.946002
5022.008000,-0.939325
5025.008000,-0.933815
5028.007000,-0.924902
5031.007000,-0.940104
5034.007000,-0.931031
5037.007000,-0.943248
5040.007000,-0.944775
5043.005000,-0.931571
5046.005000,-0.925075
5049.006000,-0.950867
5052.006000,-0.951332
5055.006000,-0.950873
5058.006000,-0.954796
5061.004000,-0.936072
5064.004000,-0.935328
5067.005000,-0.952899
5070.005000,-0.931748
5073.005000,-0.953889
5076.003000,-0.951489
5079.003000,-0.950544
5082.004000,-0.944887
5085.002000,-0.964842
5088.003000,-0.965406
5091.003000,-0.965141
5094.002000,-0.956948
5097.002000,-0.949119
5100.002000,-0.967657
5103.002000,-0.963207
5106.002000,-0.966123
5109.002000,-0.973109
5112.002000,-0.973082
5115.000000,-0.974286
5118.000000,-0.957220
5121.000000,-0.963751
5124.000000,-0.982352
5127.001000,-0.970002
5130.001000,-0.992177
5132.999000,-0.988257
5135.999000,-0.997147
5138.999000,-0.993475
5141.999000,-0.979891
5145.000000,-1.001151
5147.998000,-0.984579
5150.998000,-0.989569
5153.998000,-1.009093
5156.998000,-1.014963
5159.998000,-1.012587
5162.996000,-1.021249
5165.997000,-1.024988
5168.998000,-1.018512
5171.996000,-1.028289
5174.996000,-1.025495
5177.996000,-1.028779
5180.996000,-1.031352
5183.997000,-1.030577
5186.995000,-1.022694
5189.995000,-1.041673
5192.996000,-1.042900
5195.994000,-1.025716
5198.994000,-1.038600
5201.994000,-1.048628
5204.995000,-1.047126
5207.995000,-1.054438
5210.993000,-1.057358
5213.993000,-1.050257
5216.994000,-1.059612
5219.992000,-1.051909
5222.993000,-1.059952
5225.993000,-1.068542
5228.993000,-1.069348
5231.993000,-1.064031
5234.991000,-1.067495
5237.991000,-1.077486
5240.991000,-1.077864
5243.992000,-1.074185
5246.992000,-1.062930
5249.992000,-1.086944
5252.990000,-1.087539
5255.991000,-1.087702
5258.989000,-1.084088
5261.990000,-1.087794
5264.990000,-1.085033
5267.990000,-1.082086
5270.990000,-1.090238
5273.988000,-1.082783
5276.989000,-1.072951
5279.989000,-1.080916
5282.988000,-1.097271
5285.988000,-1.098662
5288.988000,-1.082001
5291.988000,-1.091988
5294.988000,-1.095391
5297.986000,-1.087093
5300.987000,-1.084391
5303.988000,-1.106562
5306.986000,-1.098485
5309.986000,-1.100844
5312.986000,-1.107946
5315.986000,-1.101650
5318.986000,-1.087229
5321.985000,-1.108231
5324.985000,-1.107888
5327.985000,-1.087137
5330.985000,-1.101191
5333.985000,-1.091383
5336.985000,-1.109638
5339.984000,-1.091737
5342.984000,-1.106110
5345.984000,-1.096938
5348.984000,-1.087963
5351.984000,-1.104934
5354.982000,-1.081365
5357.982000,-1.084455
5360.983000,-1.099913
5363.983000,-1.097145
5366.983000,-1.092277
5369.981000,-1.104621
5372.981000,-1.089565
5375.981000,-1.104087
5378.982000,-1.103601
5381.982000,-1.093637
5384.982000,-1.105498
5387.980000,-1.085343
5390.980000,-1.107952
5393.979000,-1.102309
5396.979000,-1.084156
5399.980000,-1.081994
5402.980000,-1.104930
5405.980000,-1.084156
5408.980000,-1.097934
5411.978000,-1.090659
5414.978000,-1.094830
5417.979000,-1.083503
5420.979000,-1.102248
5423.979000,-1.096170
5426.977000,-1.079251
5429.977000,-1.092094
5432.977000,-1.092464
5435.977000,-1.079795
5438.978000,-1.070755
5441.976000,-1.091665
5444.977000,-1.080852
5447.977000,-1.074206
5450.975000,-1.070545
5453.975000,-1.081834
5456.976000,-1.065360
5459.976000,-1.085553
5462.976000,-1.064568
5465.974000,-1.062933
5468.974000,-1.070619
5471.974000,-1.073764
5474.974000,-1.064222
5477.975000,-1.066996
5480.975000,-1.060832
5483.973000,-1.063525
5486.973000,-1.062026
5489.973000,-1.047000
5492.973000,-1.055981
5495.974000,-1.050767
5498.972000,-1.058041
5501.972000,-1.063787
5504.972000,-1.046099
5507.972000,-1.055934
5510.972000,-1.035727
5513.970000,-1.052840
5516.972000,-1.043818
5519.972000,-1.046820
5522.970000,-1.044410
5525.970000,-1.036356
5528.970000,-1.034983
5531.970000,-1.039076
5534.971000,-1.034089
5537.969000,-1.032593
5540.970000,-1.014416
5543.970000,-1.037029
5546.968000,-1.018516
5549.968000,-1.032172
5552.968000,-1.008742
5555.969000,-1.007468
5558.969000,-1.025240
5561.967000,-1.014610
5564.967000,-1.019526
5567.968000,-1.028062
5570.966000,-1.008766
5573.967000,-0.995926
5576.967000,-1.004374
5579.967000,-1.013957
5582.967000,-1.003235
5585.965000,-1.003276
5588.965000,-1.006329
5591.966000,-0.991531
5594.965000,-0.999635
5597.965000,-1.005122
5600.965000,-0.984263
5603.965000,-0.990222
5606.965000,-0.983699
5609.963000,-0.975384
5612.963000,-0.978807
5615.964000,-0.978633
5618.964000,-0.993458
5621.964000,-0.973867
5624.962000,-0.993448
5627.962000,-0.969713
5630.962000,-0.970852
5633.963000,-0.984406
5636.963000,-0.963992
5639.963000,-0.983699
5642.961000,-0.964091
5645.961000,-0.961191
5648.961000,-0.973735
5651.961000,-0.960307
5654.962000,-0.972419
5657.960000,-0.956323
5660.960000,-0.970648
5663.960000,-0.949942
5666.960000,-0.964804
5669.960000,-0.948208
5672.959000,-0.957876
5675.960000,-0.945852
5678.960000,-0.960926
5681.959000,-0.955534
5684.959000,-0.939172
5687.959000,-0.956391
5690.958000,-0.941437
5693.958000,-0.935950
5696.958000,-0.951492
5699.958000,-0.926030
5702.958000,-0.931799
5705.956000,-0.953926
5708.956000,-0.929246
5711.957000,-0.947807
5714.957000,-0.928304
5717.957000,-0.948725
5720.956000,-0.942089
5723.956000,-0.946067
5726.956000,-0.951686
5729.954000,-0.938452
5732.955000,-0.952060
5735.954000,-0.945183
5738.954000,-0.947620
5741.954000,-0.955157
5744.954000,-0.935855
5747.954000,-0.955255
5750.955000,-0.954987
5753.953000,-0.933016
5756.953000,-0.950778
5759.953000,-0.955327
5762.953000,-0.956190
5765.953000,-0.954654
5768.951000,-0.956992
5771.952000,-0.956819
5774.952000,-0.943585
5777.952000,-0.950224
5780.952000,-0.955130
5783.952000,-0.957332
5786.950000,-0.958471
5789.951000,-0.954715
5792.951000,-0.959246
5795.951000,-0.964998
5798.951000,-0.950163
5801.949000,-0.959790
5804.949000,-0.970648
5807.949000,-0.971036
5810.950000,-0.969904
5813.950000,-0.955911
5816.948000,-0.973881
5819.948000,-0.955191
5822.948000,-0.980241
5825.948000,-0.977216
5828.949000,-0.980153
5831.949000,-0.975839
5834.947000,-0.989287
5837.947000,-0.989417
5840.947000,-0.990317
5843.947000,-0.996171
5846.947000,-0.986306
5849.946000,-0.982383
5852.946000,-0.988771
5855.946000,-0.972239
5858.946000,-0.994149
5861.946000,-1.002695
5864.944000,-1.003025
5867.945000,-0.988655
5870.945000,-1.000818
5873.945000,-1.007155
5876.945000,-1.016112
5879.943000,-1.001916
5882.943000,-1.011098
5885.943000,-1.015008
5888.944000,-0.994774
5891.944000,-0.997976
5894.943000,-1.022160
5897.943000,-1.014280
5900.943000,-1.007981
5903.941000,-1.026216
5906.942000,-1.026726
5909.942000,-1.033181
5912.942000,-1.034432
5915.942000,-1.016636
5918.942000,-1.032477
5921.940000,-1.019896
5924.940000,-1.033066
5927.941000,-1.025056
5930.941000,-1.021776
5933.941000,-1.035921
5936.939000,-1.038189
5939.939000,-1.039463
5942.939000,-1.043274
5945.940000,-1.045263
5948.940000,-1.024200
5951.938000,-1.046215
5954.938000,-1.047048
5957.938000,-1.047122
5960.938000,-1.031023
5963.938000,-1.044546
5966.939000,-1.047099
5969.937000,-1.052324
5972.937000,-1.042023
5975.937000,-1.040565
5978.937000,-1.048312
5981.937000,-1.041523
5984.936000,-1.030322
5987.936000,-1.038522
5990.936000,-1.040140
5993.936000,-1.034816
5996.936000,-1.042815
5999.934000,-1.031101
6002.934000,-1.045433
6005.935000,-1.024764
6008.935000,-1.022510
6011.935000,-1.022877
6014.935000,-1.025366
6017.933000,-1.046983
6020.933000,-1.028962
6023.934000,-1.029659
6026.933000,-1.038488
6029.933000,-1.019808
6032.933000,-1.024482
6035.933000,-1.040544
6038.933000,-1.018591
6041.931000,-1.028894
6044.932000,-1.035778
6047.932000,-1.017346
6050.932000,-1.026002
6053.932000,-1.023802
6056.930000,-1.033076
6059.930000,-1.011227
6062.931000,-1.016959
6065.931000,-1.023520
6068.931000,-1.002651
6071.929000,-1.006183
6074.929000,-0.998408
6077.930000,-1.010755
6080.928000,-1.026287
6083.929000,-1.006757
6086.929000,-1.010469
6089.929000,-1.011319
6092.929000,-0.997045
6095.927000,-1.007077
6098.927000,-0.998867
6101.928000,-1.000013
6104.928000,-1.003320
6107.928000,-0.990059
6110.926000,-1.001689
6113.926000,-0.984066
6116.926000,-0.993064
6119.926000,-0.996317
6122.927000,-0.979704
6125.927000,-0.994570
6128.925000,-0.969424
6131.925000,-0.980853
6134.925000,-0.987894
6137.925000,-0.974564
6140.926000,-0.994237
6143.924000,-0.974982
6146.924000,-0.988771
6149.924000,-0.976291
6152.924000,-0.973626
6155.924000,-0.979300
6158.922000,-0.959940
6161.923000,-0.984977
6164.923000,-0.966895
6167.923000,-0.961419
6170.923000,-0.955544
6173.923000,-0.975200
6176.921000,-0.973816
6179.922000,-0.955551
6182.922000,-0.973993
6185.922000,-0.957026
6188.922000,-0.974673
6191.920000,-0.959545
6194.920000,-0.965022
6197.920000,-0.974683
6200.921000,-0.957914
6203.921000,-0.958937
6206.919000,-0.955843
6209.919000,-0.954314
6212.919000,-0.955170
6215.919000,-0.966154
6218.920000,-0.952515
6221.920000,-0.957812
6224.918000,-0.947457
6227.918000,-0.962945
6230.918000,-0.947107
6233.918000,-0.962146
6236.918000,-0.942555
6239.917000,-0.936405
6242.917000,-0.943514
6245.917000,-0.944816
6248.917000,-0.944255
6251.917000,-0.961711
6254.915000,-0.945478
6257.916000,-0.934009
6260.916000,-0.951496
6263.916000,-0.955262
6266.916000,-0.939036
6269.916000,-0.943854
6272.914000,-0.951716
6275.914000,-0.928502
6278.915000,-0.934689
6281.915000,-0.930160
6284.915000,-0.949531
6287.913000,-0.940706
6290.913000,-0.943466
6293.913000,-0.937231
6296.914000,-0.947997
6299.914000,-0.937697
6302.914000,-0.935780
6305.912000,-0.948395
6308.912000,-0.932815
6311.912000,-0.953838
6314.912000,-0.954909
6317.912000,-0.943973
6320.912000,-0.940835
6323.912000,-0.942249
6326.910000,-0.927308
6329.910000,-0.947066
6332.910000,-0.930330
6335.911000,-0.932860
6338.911000,-0.942745
6341.909000,-0.921492
6344.909000,-0.942555
6347.909000,-0.925605
6350.909000,-0.930687
6353.909000,-0.944669
6356.910000,-0.923270
6359.909000,-0.939689
6362.909000,-0.931704
6365.907000,-0.916852
6368.907000,-0.941005
6371.907000,-0.923668
6374.908000,-0.941246
6377.908000,-0.944540
6380.908000,-0.942419
6383.906000,-0.927047
6386.906000,-0.922852
6389.906000,-0.923229
6392.906000,-0.915543
6395.907000,-0.912997
6398.905000,-0.930293
6401.905000,-0.927563
6404.905000,-0.915210
6407.905000,-0.913177
6410.905000,-0.909991
6413.906000,-0.928597
6416.904000,-0.922386
6419.904000,-0.929049
6422.904000,-0.908744
6425.904000,-0.910008
6428.904000,-0.929729
6431.902000,-0.913585
6434.903000,-0.931293
6437.903000,-0.913136
6440.903000,-0.925051
6443.903000,-0.909757
6446.901000,-0.922185
6449.901000,-0.928692
6452.902000,-0.923076
6455.902000,-0.908649
6458.902000,-0.918980
6461.900000,-0.928865
6464.900000,-0.914594
6467.901000,-0.908084
6470.899000,-0.910185
6473.900000,-0.931157
6476.900000,-0.914805
6479.900000,-0.911018
6482.900000,-0.932442
6485.898000,-0.919816
6488.898000,-0.906544
6491.899000,-0.926003
6494.899000,-0.916705
6497.899000,-0.905249
6500.899000,-0.928549
6503.897000,-0.924660
6506.897000,-0.913088
6509.897000,-0.926020
6512.898000,-0.933822
6515.898000,-0.933788
6518.896000,-0.912075
6521.896000,-0.930059
6524.896000,-0.933859
6527.896000,-0.912368
6530.897000,-0.934359
6533.895000,-0.920418
6536.895000,-0.911817
6539.895000,-0.914367
6542.895000,-0.929780
6545.895000,-0.914275
6548.893000,-0.926560
6551.894000,-0.926051
6554.894000,-0.909213
6557.894000,-0.935651
6560.894000,-0.928131
6563.894000,-0.917647
6566.892000,-0.921264
6569.893000,-0.934036
6572.893000,-0.919775
6575.892000,-0.924177
6578.892000,-0.933390
6581.892000,-0.915781
6584.892000,-0.924500
6587.891000,-0.936575
6590.891000,-0.936857
6593.891000,-0.935991
6596.891000,-0.935001
6599.891000,-0.943038
6602.891000,-0.932139
6605.889000,-0.930929
6608.890000,-0.941552
6611.890000,-0.945631
6614.890000,-0.933594
6617.890000,-0.928488
6620.890000,-0.946012
6623.888000,-0.925581
6626.888000,-0.943395
6629.889000,-0.928213
6632.889000,-0.923430
6635.889000,-0.945818
6638.887000,-0.927098
6641.887000,-0.946886
6644.887000,-0.931197
6647.887000,-0.937068
6650.887000,-0.954378
6653.887000,-0.946458
6656.887000,-0.944969
6659.887000,-0.945951
6662.886000,-0.954426
6665.886000,-0.938190
6668.886000,-0.931347
6671.886000,-0.934553
6674.886000,-0.950027
6677.884000,-0.936674
6680.884000,-0.949381
6683.884000,-0.949854
6686.884000,-0.953175
6689.884000,-0.945278
6692.884000,-0.935790
6695.884000,-0.946757
6698.884000,-0.942654
6701.882000,-0.935022
6704.882000,-0.949813
6707.883000,-0.933040
6710.883000,-0.942212
6713.883000,-0.955915
6716.881000,-0.950397
6719.881000,-0.936358
6722.881000,-0.956585
6725.882000,-0.940423
6728.882000,-0.939308
6731.882000,-0.962245
6734.880000,-0.960137
6737.880000,-0.942106
6740.880000,-0.964957
6743.880000,-0.951995
6746.881000,-0.946614
6749.879000,-0.962238
6752.879000,-0.948820
6755.879000,-0.944197
6758.879000,-0.960507
6761.879000,-0.946267
6764.880000,-0.954565
6767.878000,-0.967650
6770.878000,-0.948065
6773.878000,-0.953715
6776.878000,-0.956802
6779.878000,-0.967364
6782.876000,-0.951088
6785.877000,-0.973738
6788.877000,-0.965658
6791.877000,-0.970641
6794.877000,-0.968908
6797.875000,-0.960657
6800.875000,-0.975785
6803.876000,-0.961439
6806.876000,-0.967296
6809.876000,-0.955051
6812.874000,-0.972647
6815.874000,-0.954735
6818.875000,-0.969013
6821.873000,-0.968486
6824.874000,-0.964951
6827.874000,-0.967099
6830.874000,-0.971559
6833.874000,-0.977155
6836.872000,-0.964920
6839.872000,-0.954987
6842.873000,-0.979799
6845.873000,-0.965274
6848.873000,-0.965138
6851.872000,-0.962612
6854.871000,-0.958743
6857.871000,-0.975061
6860.871000,-0.962748
6863.872000,-0.976230
6866.872000,-0.977379
6869.870000,-0.970553
6872.870000,-0.962421
6875.870000,-0.962938
6878.870000,-0.981061
6881.870000,-0.965002
6884.869000,-0.955068
6887.869000,-0.961228
6890.869000,-0.957798
6893.869000,-0.968537
6896.869000,-0.976376
6899.867000,-0.956805
6902.868000,-0.972763
6905.868000,-0.973871
6908.868000,-0.960123
6911.868000,-0.973184
6914.868000,-0.967085
6917.866000,-0.952087
6920.866000,-0.954140
6923.867000,-0.949935
6926.866000,-0.954164
6929.866000,-0.966178
6932.866000,-0.947746
6935.866000,-0.975322
6938.866000,-0.964240
6941.866000,-0.963570
6944.866000,-0.961208
6947.864000,-0.971841
6950.864000,-0.958512
6953.864000,-0.975428
6956.864000,-0.970675
6959.864000,-0.964074
6962.865000,-0.964046
6965.863000,-0.951536
6968.863000,-0.973255
6971.863000,-0.954232
6974.863000,-0.968411
6977.862000,-0.956132
6980.863000,-0.959763
6983.863000,-0.965440
6986.863000,-0.965073
6989.861000,-0.944248
6992.861000,-0.954541
6995.861000,-0.965291
6998.861000,-0.953780
7001.862000,-0.959964
7004.860000,-0.965777
7007.860000,-0.947246
7010.860000,-0.965474
7013.860000,-0.963047
7016.860000,-0.947301
7019.859000,-0.949758
7022.859000,-0.964784
7025.859000,-0.959158
7028.859000,-0.953052
7031.859000,-0.936052
7034.859000,-0.944098
7037.857000,-0.956122
7040.858000,-0.957081
7043.858000,-0.948130
7046.858000,-0.934835
7049.858000,-0.950479
7052.856000,-0.928549
7055.856000,-0.936116
7058.857000,-0.935440
7061.857000,-0.933336
7064.857000,-0.943656
7067.856000,-0.924895
7070.856000,-0.949497
7073.856000,-0.932105
7076.854000,-0.948113
7079.855000,-0.931204
7082.855000,-0.941766
7085.855000,-0.947477
7088.855000,-0.943871
7091.853000,-0.928420
7094.853000,-0.940624
7097.855000,-0.941586
7100.853000,-0.921196
7103.853000,-0.941433
7106.853000,-0.922478
7109.853000,-0.934434
7112.853000,-0.928947
7115.851000,-0.933958
7118.852000,-0.937129
7121.852000,-0.925452
7124.852000,-0.944724
7127.852000,-0.924310
7130.850000,-0.936844
7133.850000,-0.925075
7136.851000,-0.941865
7139.851000,-0.932074
7142.851000,-0.921553
7145.851000,-0.934379
7148.849000,-0.923922
7151.849000,-0.911953
7154.849000,-0.933373
7157.850000,-0.933329
7160.850000,-0.924738
7163.848000,-0.914533
7166.848000,-0.930201
7169.848000,-0.911232
7172.847000,-0.917882
7175.848000,-0.930514
7178.848000,-0.910127
7181.848000,-0.912028
7184.848000,-0.914526
7187.846000,-0.910753
7190.846000,-0.932299
7193.847000,-0.911005
7196.846000,-0.922216
7199.846000,-0.912021
7202.846000,-0.912364
7205.846000,-0.909461
