Time(s),Ch 1  (V),
0.000000,3.833938
1.000000E-6,3.799562
2.000000E-6,3.788938
3.000000E-6,3.768312
4.000000E-6,3.750500
5.000000E-6,3.712063
6.000000E-6,3.715813
7.000000E-6,3.692063
8.000000E-6,3.683937
9.000000E-6,3.653313
1.000000E-5,3.643312
1.100000E-5,3.608000
1.200000E-5,3.611125
1.300000E-5,3.601125
1.400000E-5,3.576437
1.500000E-5,3.573313
1.600000E-5,3.552375
1.700000E-5,3.527687
1.800000E-5,3.500188
1.900000E-5,3.500812
2.000000E-5,3.464875
2.100000E-5,3.466125
2.200000E-5,3.450813
2.300000E-5,3.438000
2.400000E-5,3.406125
2.500000E-5,3.392375
2.600000E-5,3.388937
2.700000E-5,3.388313
2.800000E-5,3.357687
2.900000E-5,3.343938
3.000000E-5,3.308937
3.100000E-5,3.308625
3.200000E-5,3.291438
3.300000E-5,3.270500
3.400000E-5,3.256750
3.500000E-5,3.233000
3.600000E-5,3.242062
3.700000E-5,3.222375
3.800000E-5,3.200813
3.900000E-5,3.190500
4.000000E-5,3.183625
4.100000E-5,3.156125
4.200000E-5,3.127687
4.300000E-5,3.124563
4.400000E-5,3.114250
4.500000E-5,3.086438
4.600000E-5,3.082688
4.700000E-5,3.068625
4.800000E-5,3.058625
4.900000E-5,3.040812
5.000000E-5,3.030813
5.100000E-5,3.009250
5.200000E-5,2.999875
5.300000E-5,2.970813
5.400000E-5,2.965187
5.500000E-5,2.954250
5.600000E-5,2.957688
5.700000E-5,2.936125
5.800000E-5,2.923313
5.900000E-5,2.891125
6.000000E-5,2.885188
6.100000E-5,2.863313
6.200000E-5,2.877063
6.300000E-5,2.846750
6.400000E-5,2.824875
6.500000E-5,2.825500
6.600000E-5,2.801438
6.700000E-5,2.800813
6.800000E-5,2.766125
6.900000E-5,2.769875
7.000000E-5,2.773312
7.100000E-5,2.742062
7.200000E-5,2.724563
7.300000E-5,2.734875
7.400000E-5,2.734875
7.500000E-5,2.703625
7.600000E-5,2.678937
7.700000E-5,2.659250
7.800000E-5,2.661437
7.900000E-5,2.637062
8.000000E-5,2.630813
8.100000E-5,2.613625
8.200000E-5,2.609563
8.300000E-5,2.599250
8.400000E-5,2.598937
8.500000E-5,2.575188
8.600000E-5,2.548000
8.700000E-5,2.539250
8.800000E-5,2.543625
8.900000E-5,2.533625
9.000000E-5,2.495188
9.100000E-5,2.504563
9.200000E-5,2.488938
9.300000E-5,2.479875
9.400000E-5,2.481750
9.500000E-5,2.456750
9.600000E-5,2.435812
9.700000E-5,2.446125
9.800000E-5,2.421750
9.900000E-5,2.394250
0.000100,2.397375
0.000101,2.387375
0.000102,2.373000
0.000103,2.366437
0.000104,2.352375
0.000105,2.356125
0.000106,2.328000
0.000107,2.320500
0.000108,2.328625
0.000109,2.299875
0.000110,2.296438
0.000111,2.286437
0.000112,2.265500
0.000113,2.252063
0.000114,2.243937
0.000115,2.244563
0.000116,2.220188
0.000117,2.216750
0.000118,2.192063
0.000119,2.199562
0.000120,2.182375
0.000121,2.174562
0.000122,2.150813
0.000123,2.146750
0.000124,2.150187
0.000125,2.123000
0.000126,2.115813
0.000127,2.109250
0.000128,2.118937
0.000129,2.084250
0.000130,2.081125
0.000131,2.063938
0.000132,2.053313
0.000133,2.047063
0.000134,2.042063
0.000135,2.035813
0.000136,2.018625
0.000137,2.014875
0.000138,2.004250
0.000139,1.991125
0.000140,1.979563
0.000141,1.969875
0.000142,1.973313
0.000143,1.952375
0.000144,1.952688
0.000145,1.924250
0.000146,1.917687
0.000147,1.923938
0.000148,1.918313
0.000149,1.896125
0.000150,1.897063
0.000151,1.879250
0.000152,1.882375
0.000153,1.854875
0.000154,1.854875
0.000155,1.831125
0.000156,1.848000
0.000157,1.844250
0.000158,1.820188
0.000159,1.827375
0.000160,1.802375
0.000161,1.793000
0.000162,1.792063
0.000163,1.778312
0.000164,1.785187
0.000165,1.768312
0.000166,1.753937
0.000167,1.750500
0.000168,1.726438
0.000169,1.726438
0.000170,1.722375
0.000171,1.713000
0.000172,1.712375
0.000173,1.677375
0.000174,1.705188
0.000175,1.680813
0.000176,1.657063
0.000177,1.653000
0.000178,1.657063
0.000179,1.642375
0.000180,1.646437
0.000181,1.643000
0.000182,1.625188
0.000183,1.618000
0.000184,1.611750
0.000185,1.601125
0.000186,1.601125
0.000187,1.590500
0.000188,1.569875
0.000189,1.576750
0.000190,1.555813
0.000191,1.538625
0.000192,1.548625
0.000193,1.545500
0.000194,1.528000
0.000195,1.531750
0.000196,1.510500
0.000197,1.517688
0.000198,1.499875
0.000199,1.482687
0.000200,1.497062
0.000201,1.468625
0.000202,1.471750
0.000203,1.465812
0.000204,1.455188
0.000205,1.469250
0.000206,1.450813
0.000207,1.437688
0.000208,1.440813
0.000209,1.416750
0.000210,1.420500
0.000211,1.430500
0.000212,1.402688
0.000213,1.409875
0.000214,1.399563
0.000215,1.392062
0.000216,1.371125
0.000217,1.375188
0.000218,1.350812
0.000219,1.354250
0.000220,1.347063
0.000221,1.336437
0.000222,1.343938
0.000223,1.336437
0.000224,1.322688
0.000225,1.315813
0.000226,1.316437
0.000227,1.304875
0.000228,1.298625
0.000229,1.284250
0.000230,1.294875
0.000231,1.284875
0.000232,1.267062
0.000233,1.256750
0.000234,1.260188
0.000235,1.256125
0.000236,1.243000
0.000237,1.225812
0.000238,1.235500
0.000239,1.239563
0.000240,1.218625
0.000241,1.215188
0.000242,1.211125
0.000243,1.197688
0.000244,1.201125
0.000245,1.183000
0.000246,1.177063
0.000247,1.169875
0.000248,1.169875
0.000249,1.169250
0.000250,1.159563
0.000251,1.155813
0.000252,1.148625
0.000253,1.149250
0.000254,1.142062
0.000255,1.131125
0.000256,1.138625
0.000257,1.124563
0.000258,1.117687
0.000259,1.113312
0.000260,1.128625
0.000261,1.103000
0.000262,1.090188
0.000263,1.106750
0.000264,1.089875
0.000265,1.079562
0.000266,1.089250
0.000267,1.069562
0.000268,1.076125
0.000269,1.075187
0.000270,1.041125
0.000271,1.062063
0.000272,1.054875
0.000273,1.020500
0.000274,1.026438
0.000275,1.027688
0.000276,1.023313
0.000277,1.020188
0.000278,1.020500
0.000279,1.003313
0.000280,1.008938
0.000281,1.002687
0.000282,0.988938
0.000283,0.972063
0.000284,0.996125
0.000285,0.974562
0.000286,0.985500
0.000287,0.967688
0.000288,0.975187
0.000289,0.967688
0.000290,0.964875
0.000291,0.946750
0.000292,0.960813
0.000293,0.947063
0.000294,0.933625
0.000295,0.919250
0.000296,0.929250
0.000297,0.915813
0.000298,0.909563
0.000299,0.926438
0.000300,0.922375
0.000301,0.891750
0.000302,0.905188
0.000303,0.891125
0.000304,0.881125
0.000305,0.892062
0.000306,0.863625
0.000307,0.890500
0.000308,0.863938
0.000309,0.881437
0.000310,0.863625
0.000311,0.856750
0.000312,0.849562
0.000313,0.853313
0.000314,0.857063
0.000315,0.846125
0.000316,0.856437
0.000317,0.839562
0.000318,0.821750
0.000319,0.832688
0.000320,0.811438
0.000321,0.821438
0.000322,0.818625
0.000323,0.811750
0.000324,0.811438
0.000325,0.786750
0.000326,0.794250
0.000327,0.783625
0.000328,0.798000
0.000329,0.786750
0.000330,0.769563
0.000331,0.797687
0.000332,0.783938
0.000333,0.766125
0.000334,0.762687
0.000335,0.762687
0.000336,0.745812
0.000337,0.765813
0.000338,0.763000
0.000339,0.748938
0.000340,0.745188
0.000341,0.735187
0.000342,0.735187
0.000343,0.724250
0.000344,0.738313
0.000345,0.720500
0.000346,0.721438
0.000347,0.714250
0.000348,0.714250
0.000349,0.710500
0.000350,0.696750
0.000351,0.696438
0.000352,0.696750
0.000353,0.700187
0.000354,0.690188
0.000355,0.696750
0.000356,0.685813
0.000357,0.676125
0.000358,0.679250
0.000359,0.682688
0.000360,0.679250
0.000361,0.672375
0.000362,0.661750
0.000363,0.662062
0.000364,0.658625
0.000365,0.658312
0.000366,0.651438
0.000367,0.641437
0.000368,0.650813
0.000369,0.637687
0.000370,0.613000
0.000371,0.644563
0.000372,0.627062
0.000373,0.619875
0.000374,0.620812
0.000375,0.623625
0.000376,0.613000
0.000377,0.603000
0.000378,0.613000
0.000379,0.599562
0.000380,0.595812
0.000381,0.609563
0.000382,0.617375
0.000383,0.588625
0.000384,0.598938
0.000385,0.585500
0.000386,0.595187
0.000387,0.585812
0.000388,0.592375
0.000389,0.592688
0.000390,0.560813
0.000391,0.575187
0.000392,0.561125
0.000393,0.560813
0.000394,0.561125
0.000395,0.554250
0.000396,0.550500
0.000397,0.543312
0.000398,0.547375
0.000399,0.536125
0.000400,0.540188
0.000401,0.547375
0.000402,0.526438
0.000403,0.537375
0.000404,0.543000
0.000405,0.516125
0.000406,0.529563
0.000407,0.519563
0.000408,0.518938
0.000409,0.529875
0.000410,0.509563
0.000411,0.518625
0.000412,0.526125
0.000413,0.508938
0.000414,0.508938
0.000415,0.505500
0.000416,0.498625
0.000417,0.512687
0.000418,0.490812
0.000419,0.484563
0.000420,0.498625
0.000421,0.484563
0.000422,0.484250
0.000423,0.463625
0.000424,0.471125
0.000425,0.480813
0.000426,0.459562
0.000427,0.467375
0.000428,0.467062
0.000429,0.456750
0.000430,0.467375
0.000431,0.463938
0.000432,0.445813
0.000433,0.467375
0.000434,0.459875
0.000435,0.446437
0.000436,0.456750
0.000437,0.445813
0.000438,0.460188
0.000439,0.449875
0.000440,0.432688
0.000441,0.439250
0.000442,0.429250
0.000443,0.424875
0.000444,0.422375
0.000445,0.435500
0.000446,0.428938
0.000447,0.428938
0.000448,0.428625
0.000449,0.415500
0.000450,0.407375
0.000451,0.411750
0.000452,0.408000
0.000453,0.400500
0.000454,0.408625
0.000455,0.408000
0.000456,0.407688
0.000457,0.393937
0.000458,0.398000
0.000459,0.390500
0.000460,0.387375
0.000461,0.380188
0.000462,0.387063
0.000463,0.383313
0.000464,0.369563
0.000465,0.373625
0.000466,0.369250
0.000467,0.366438
0.000468,0.380500
0.000469,0.373000
0.000470,0.376437
0.000471,0.370188
0.000472,0.355813
0.000473,0.369563
0.000474,0.369563
0.000475,0.363000
0.000476,0.359250
0.000477,0.345187
0.000478,0.349562
0.000479,0.341125
0.000480,0.353000
0.000481,0.355500
0.000482,0.345500
0.000483,0.338313
0.000484,0.352375
0.000485,0.338625
0.000486,0.348625
0.000487,0.345500
0.000488,0.324250
0.000489,0.342375
0.000490,0.320500
0.000491,0.335188
0.000492,0.314250
0.000493,0.321437
0.000494,0.320500
0.000495,0.338938
0.000496,0.313937
0.000497,0.310812
0.000498,0.331437
0.000499,0.317375
