Time(s),Ch 1  (V),
0.000000,3.648000
1.000000E-6,3.608000
2.000000E-6,3.608000
3.000000E-6,3.608000
4.000000E-6,3.608000
5.000000E-6,3.608000
6.000000E-6,3.528000
7.000000E-6,3.528000
8.000000E-6,3.488000
9.000000E-6,3.528000
1.000000E-5,3.528000
1.100000E-5,3.488000
1.200000E-5,3.488000
1.300000E-5,3.488000
1.400000E-5,3.488000
1.500000E-5,3.488000
1.600000E-5,3.448000
1.700000E-5,3.488000
1.800000E-5,3.448000
1.900000E-5,3.448000
2.000000E-5,3.368000
2.100000E-5,3.368000
2.200000E-5,3.368000
2.300000E-5,3.408000
2.400000E-5,3.368000
2.500000E-5,3.368000
2.600000E-5,3.368000
2.700000E-5,3.368000
2.800000E-5,3.368000
2.900000E-5,3.328000
3.000000E-5,3.328000
3.100000E-5,3.328000
3.200000E-5,3.368000
3.300000E-5,3.288000
3.400000E-5,3.288000
3.500000E-5,3.328000
3.600000E-5,3.328000
3.700000E-5,3.248000
3.800000E-5,3.248000
3.900000E-5,3.288000
4.000000E-5,3.288000
4.100000E-5,3.208000
4.200000E-5,3.168000
4.300000E-5,3.208000
4.400000E-5,3.248000
4.500000E-5,3.168000
4.600000E-5,3.168000
4.700000E-5,3.168000
4.800000E-5,3.128000
4.900000E-5,3.168000
5.000000E-5,3.168000
5.100000E-5,3.168000
5.200000E-5,3.128000
5.300000E-5,3.128000
5.400000E-5,3.128000
5.500000E-5,3.128000
5.600000E-5,3.128000
5.700000E-5,3.048000
5.800000E-5,3.128000
5.900000E-5,3.128000
6.000000E-5,3.048000
6.100000E-5,3.088000
6.200000E-5,3.088000
6.300000E-5,3.048000
6.400000E-5,3.048000
6.500000E-5,3.048000
6.600000E-5,3.048000
6.700000E-5,3.008000
6.800000E-5,3.048000
6.900000E-5,3.008000
7.000000E-5,3.048000
7.100000E-5,3.008000
7.200000E-5,2.968000
7.300000E-5,2.968000
7.400000E-5,2.928000
7.500000E-5,2.928000
7.600000E-5,2.968000
7.700000E-5,2.928000
7.800000E-5,2.928000
7.900000E-5,2.928000
8.000000E-5,2.848000
8.100000E-5,2.928000
8.200000E-5,2.888000
8.300000E-5,2.928000
8.400000E-5,2.928000
8.500000E-5,2.888000
8.600000E-5,2.848000
8.700000E-5,2.808000
8.800000E-5,2.848000
8.900000E-5,2.848000
9.000000E-5,2.848000
9.100000E-5,2.848000
9.200000E-5,2.808000
9.300000E-5,2.808000
9.400000E-5,2.808000
9.500000E-5,2.808000
9.600000E-5,2.768000
9.700000E-5,2.808000
9.800000E-5,2.768000
9.900000E-5,2.728000
0.000100,2.728000
0.000101,2.808000
0.000102,2.728000
0.000103,2.728000
0.000104,2.688000
0.000105,2.688000
0.000106,2.728000
0.000107,2.688000
0.000108,2.728000
0.000109,2.688000
0.000110,2.728000
0.000111,2.688000
0.000112,2.648000
0.000113,2.688000
0.000114,2.648000
0.000115,2.648000
0.000116,2.648000
0.000117,2.648000
0.000118,2.608000
0.000119,2.648000
0.000120,2.608000
0.000121,2.608000
0.000122,2.568000
0.000123,2.608000
0.000124,2.568000
0.000125,2.568000
0.000126,2.568000
0.000127,2.568000
0.000128,2.568000
0.000129,2.568000
0.000130,2.568000
0.000131,2.528000
0.000132,2.528000
0.000133,2.488000
0.000134,2.568000
0.000135,2.488000
0.000136,2.568000
0.000137,2.488000
0.000138,2.528000
0.000139,2.488000
0.000140,2.488000
0.000141,2.488000
0.000142,2.448000
0.000143,2.448000
0.000144,2.448000
0.000145,2.448000
0.000146,2.448000
0.000147,2.408000
0.000148,2.408000
0.000149,2.408000
0.000150,2.408000
0.000151,2.368000
0.000152,2.408000
0.000153,2.368000
0.000154,2.408000
0.000155,2.368000
0.000156,2.368000
0.000157,2.408000
0.000158,2.328000
0.000159,2.328000
0.000160,2.368000
0.000161,2.368000
0.000162,2.328000
0.000163,2.328000
0.000164,2.328000
0.000165,2.368000
0.000166,2.328000
0.000167,2.288000
0.000168,2.288000
0.000169,2.328000
0.000170,2.288000
0.000171,2.248000
0.000172,2.288000
0.000173,2.288000
0.000174,2.248000
0.000175,2.208000
0.000176,2.288000
0.000177,2.208000
0.000178,2.208000
0.000179,2.208000
0.000180,2.168000
0.000181,2.208000
0.000182,2.248000
0.000183,2.168000
0.000184,2.208000
0.000185,2.168000
0.000186,2.208000
0.000187,2.168000
0.000188,2.128000
0.000189,2.208000
0.000190,2.168000
0.000191,2.168000
0.000192,2.168000
0.000193,2.168000
0.000194,2.128000
0.000195,2.128000
0.000196,2.128000
0.000197,2.128000
0.000198,2.128000
0.000199,2.128000
0.000200,2.128000
0.000201,2.048000
0.000202,2.048000
0.000203,2.088000
0.000204,2.048000
0.000205,2.048000
0.000206,2.008000
0.000207,2.088000
0.000208,2.048000
0.000209,2.048000
0.000210,2.048000
0.000211,2.048000
0.000212,2.048000
0.000213,2.008000
0.000214,2.008000
0.000215,2.008000
0.000216,1.968000
0.000217,2.008000
0.000218,1.968000
0.000219,2.008000
0.000220,2.008000
0.000221,2.008000
0.000222,1.968000
0.000223,2.008000
0.000224,1.968000
0.000225,1.968000
0.000226,1.928000
0.000227,1.928000
0.000228,1.928000
0.000229,1.928000
0.000230,1.928000
0.000231,1.928000
0.000232,1.968000
0.000233,1.928000
0.000234,1.928000
0.000235,1.888000
0.000236,1.928000
0.000237,1.928000
0.000238,1.888000
0.000239,1.848000
0.000240,1.888000
0.000241,1.888000
0.000242,1.888000
0.000243,1.888000
0.000244,1.888000
0.000245,1.888000
0.000246,1.848000
0.000247,1.848000
0.000248,1.808000
0.000249,1.888000
0.000250,1.848000
0.000251,1.808000
0.000252,1.808000
0.000253,1.808000
0.000254,1.808000
0.000255,1.808000
0.000256,1.768000
0.000257,1.768000
0.000258,1.808000
0.000259,1.728000
0.000260,1.808000
0.000261,1.768000
0.000262,1.808000
0.000263,1.768000
0.000264,1.728000
0.000265,1.728000
0.000266,1.768000
0.000267,1.728000
0.000268,1.728000
0.000269,1.728000
0.000270,1.728000
0.000271,1.768000
0.000272,1.728000
0.000273,1.728000
0.000274,1.688000
0.000275,1.688000
0.000276,1.768000
0.000277,1.688000
0.000278,1.688000
0.000279,1.688000
0.000280,1.688000
0.000281,1.688000
0.000282,1.728000
0.000283,1.648000
0.000284,1.608000
0.000285,1.688000
0.000286,1.688000
0.000287,1.608000
0.000288,1.648000
0.000289,1.688000
0.000290,1.648000
0.000291,1.648000
0.000292,1.648000
0.000293,1.648000
0.000294,1.688000
0.000295,1.608000
0.000296,1.648000
0.000297,1.608000
0.000298,1.568000
0.000299,1.608000
0.000300,1.608000
0.000301,1.568000
0.000302,1.568000
0.000303,1.528000
0.000304,1.568000
0.000305,1.568000
0.000306,1.568000
0.000307,1.568000
0.000308,1.488000
0.000309,1.528000
0.000310,1.568000
0.000311,1.528000
0.000312,1.568000
0.000313,1.528000
0.000314,1.528000
0.000315,1.528000
0.000316,1.528000
0.000317,1.528000
0.000318,1.528000
0.000319,1.528000
0.000320,1.488000
0.000321,1.488000
0.000322,1.448000
0.000323,1.448000
0.000324,1.488000
0.000325,1.448000
0.000326,1.488000
0.000327,1.448000
0.000328,1.488000
0.000329,1.448000
0.000330,1.448000
0.000331,1.448000
0.000332,1.448000
0.000333,1.488000
0.000334,1.408000
0.000335,1.448000
0.000336,1.448000
0.000337,1.448000
0.000338,1.448000
0.000339,1.448000
0.000340,1.488000
0.000341,1.448000
0.000342,1.448000
0.000343,1.408000
0.000344,1.408000
0.000345,1.408000
0.000346,1.368000
0.000347,1.448000
0.000348,1.408000
0.000349,1.368000
0.000350,1.368000
0.000351,1.408000
0.000352,1.368000
0.000353,1.368000
0.000354,1.368000
0.000355,1.448000
0.000356,1.368000
0.000357,1.408000
0.000358,1.368000
0.000359,1.368000
0.000360,1.368000
0.000361,1.368000
0.000362,1.368000
0.000363,1.328000
0.000364,1.368000
0.000365,1.288000
0.000366,1.328000
0.000367,1.288000
0.000368,1.408000
0.000369,1.328000
0.000370,1.288000
0.000371,1.288000
0.000372,1.288000
0.000373,1.288000
0.000374,1.288000
0.000375,1.288000
0.000376,1.328000
0.000377,1.328000
0.000378,1.288000
0.000379,1.328000
0.000380,1.288000
0.000381,1.248000
0.000382,1.288000
0.000383,1.288000
0.000384,1.248000
0.000385,1.208000
0.000386,1.248000
0.000387,1.208000
0.000388,1.248000
0.000389,1.248000
0.000390,1.248000
0.000391,1.248000
0.000392,1.248000
0.000393,1.208000
0.000394,1.208000
0.000395,1.288000
0.000396,1.208000
0.000397,1.208000
0.000398,1.208000
0.000399,1.208000
0.000400,1.208000
0.000401,1.208000
0.000402,1.208000
0.000403,1.208000
0.000404,1.208000
0.000405,1.168000
0.000406,1.168000
0.000407,1.208000
0.000408,1.208000
0.000409,1.168000
0.000410,1.208000
0.000411,1.168000
0.000412,1.168000
0.000413,1.168000
0.000414,1.168000
0.000415,1.128000
0.000416,1.208000
0.000417,1.208000
0.000418,1.128000
0.000419,1.128000
0.000420,1.128000
0.000421,1.168000
0.000422,1.168000
0.000423,1.168000
0.000424,1.128000
0.000425,1.128000
0.000426,1.088000
0.000427,1.128000
0.000428,1.088000
0.000429,1.088000
0.000430,1.128000
0.000431,1.128000
0.000432,1.088000
0.000433,1.128000
0.000434,1.128000
0.000435,1.128000
0.000436,1.128000
0.000437,1.088000
0.000438,1.088000
0.000439,1.088000
0.000440,1.048000
0.000441,1.048000
0.000442,1.048000
0.000443,1.048000
0.000444,1.088000
0.000445,1.048000
0.000446,1.048000
0.000447,1.128000
0.000448,1.008000
0.000449,1.048000
0.000450,1.048000
0.000451,1.048000
0.000452,1.088000
0.000453,1.048000
0.000454,1.008000
0.000455,1.048000
0.000456,1.008000
0.000457,1.048000
0.000458,1.048000
0.000459,1.008000
0.000460,1.048000
0.000461,1.048000
0.000462,1.008000
0.000463,1.048000
0.000464,0.968000
0.000465,1.048000
0.000466,1.008000
0.000467,1.048000
0.000468,1.008000
0.000469,0.968000
0.000470,0.968000
0.000471,1.008000
0.000472,1.008000
0.000473,0.968000
0.000474,1.008000
0.000475,0.968000
0.000476,0.928000
0.000477,0.968000
0.000478,0.968000
0.000479,0.968000
0.000480,0.968000
0.000481,0.968000
0.000482,0.968000
0.000483,0.968000
0.000484,0.968000
0.000485,1.008000
0.000486,0.888000
0.000487,0.968000
0.000488,0.928000
0.000489,0.928000
0.000490,0.928000
0.000491,0.928000
0.000492,0.968000
0.000493,0.928000
0.000494,0.968000
0.000495,0.968000
0.000496,0.928000
0.000497,0.928000
0.000498,0.928000
0.000499,0.888000
