Time(s),Ch 1  (V),
0.000000,3.911125
5.000000E-7,3.782062
1.000000E-6,3.770812
1.500000E-6,3.768000
2.000000E-6,3.764250
2.500000E-6,3.748625
3.000000E-6,3.721750
3.500000E-6,3.716125
4.000000E-6,3.691750
4.500000E-6,3.680500
5.000000E-6,3.667375
5.500000E-6,3.663625
6.000000E-6,3.638937
6.500000E-6,3.629250
7.000000E-6,3.611125
7.500000E-6,3.615188
8.000000E-6,3.593938
8.500000E-6,3.587063
9.000000E-6,3.566438
9.500000E-6,3.569875
1.000000E-5,3.552062
1.050000E-5,3.549250
1.100000E-5,3.521125
1.150000E-5,3.503313
1.200000E-5,3.486438
1.250000E-5,3.489250
1.300000E-5,3.468938
1.350000E-5,3.465813
1.400000E-5,3.451437
1.450000E-5,3.437375
1.500000E-5,3.431125
1.550000E-5,3.413000
1.600000E-5,3.419250
1.650000E-5,3.382688
1.700000E-5,3.381750
1.750000E-5,3.385813
1.800000E-5,3.364875
1.850000E-5,3.349563
1.900000E-5,3.337375
1.950000E-5,3.329563
2.000000E-5,3.308937
2.050000E-5,3.301438
2.100000E-5,3.288312
2.150000E-5,3.294563
2.200000E-5,3.285188
2.250000E-5,3.245812
2.300000E-5,3.239562
2.350000E-5,3.231750
2.400000E-5,3.229250
2.450000E-5,3.207688
2.500000E-5,3.201437
2.550000E-5,3.183625
2.600000E-5,3.176438
2.650000E-5,3.173313
2.700000E-5,3.146125
2.750000E-5,3.127063
2.800000E-5,3.135500
2.850000E-5,3.131125
2.900000E-5,3.103312
2.950000E-5,3.111438
3.000000E-5,3.096125
3.050000E-5,3.086438
3.100000E-5,3.062063
3.150000E-5,3.058000
3.200000E-5,3.055500
3.250000E-5,3.037375
3.300000E-5,3.023625
3.350000E-5,3.013313
3.400000E-5,3.013625
3.450000E-5,2.995500
3.500000E-5,2.992375
3.550000E-5,2.971750
3.600000E-5,2.960812
3.650000E-5,2.957375
3.700000E-5,2.947688
3.750000E-5,2.942687
3.800000E-5,2.940500
3.850000E-5,2.913000
3.900000E-5,2.898000
3.950000E-5,2.898625
4.000000E-5,2.877375
4.050000E-5,2.870188
4.100000E-5,2.860813
4.150000E-5,2.849563
4.200000E-5,2.860187
4.250000E-5,2.839250
4.300000E-5,2.822062
4.350000E-5,2.811438
4.400000E-5,2.804562
4.450000E-5,2.790500
4.500000E-5,2.773312
4.550000E-5,2.790812
4.600000E-5,2.759250
4.650000E-5,2.762688
4.700000E-5,2.742062
4.750000E-5,2.738625
4.800000E-5,2.723937
4.850000E-5,2.714562
4.900000E-5,2.706750
4.950000E-5,2.700188
5.000000E-5,2.700188
5.050000E-5,2.675813
5.100000E-5,2.672375
5.150000E-5,2.658625
5.200000E-5,2.651125
5.250000E-5,2.651438
5.300000E-5,2.638000
5.350000E-5,2.620188
5.400000E-5,2.605812
5.450000E-5,2.596125
5.500000E-5,2.599250
5.550000E-5,2.595500
5.600000E-5,2.582063
5.650000E-5,2.574875
5.700000E-5,2.554562
5.750000E-5,2.560812
5.800000E-5,2.546750
5.850000E-5,2.523000
5.900000E-5,2.523312
5.950000E-5,2.508625
6.000000E-5,2.508313
6.050000E-5,2.498938
6.100000E-5,2.484250
6.150000E-5,2.491437
6.200000E-5,2.480812
6.250000E-5,2.471125
6.300000E-5,2.460187
6.350000E-5,2.446125
6.400000E-5,2.425500
6.450000E-5,2.439250
6.500000E-5,2.422375
6.550000E-5,2.404250
6.600000E-5,2.415188
6.650000E-5,2.386437
6.700000E-5,2.390813
6.750000E-5,2.377063
6.800000E-5,2.362375
6.850000E-5,2.356125
6.900000E-5,2.362687
6.950000E-5,2.348937
7.000000E-5,2.341750
7.050000E-5,2.338313
7.100000E-5,2.335500
7.150000E-5,2.324250
7.200000E-5,2.321438
7.250000E-5,2.306750
7.300000E-5,2.293312
7.350000E-5,2.303625
7.400000E-5,2.272375
7.450000E-5,2.272375
7.500000E-5,2.261437
7.550000E-5,2.251750
7.600000E-5,2.257687
7.650000E-5,2.224563
7.700000E-5,2.223625
7.750000E-5,2.233625
7.800000E-5,2.209875
7.850000E-5,2.185188
7.900000E-5,2.189250
7.950000E-5,2.188938
8.000000E-5,2.192687
8.050000E-5,2.170813
8.100000E-5,2.172063
8.150000E-5,2.153625
8.200000E-5,2.150813
8.250000E-5,2.150500
8.300000E-5,2.143312
8.350000E-5,2.119563
8.400000E-5,2.137062
8.450000E-5,2.102063
8.500000E-5,2.112062
8.550000E-5,2.105187
8.600000E-5,2.095500
8.650000E-5,2.087375
8.700000E-5,2.077688
8.750000E-5,2.084563
8.800000E-5,2.067063
8.850000E-5,2.039875
8.900000E-5,2.042687
8.950000E-5,2.045813
9.000000E-5,2.022375
9.050000E-5,2.018312
9.100000E-5,2.028625
9.150000E-5,2.014875
9.200000E-5,1.994250
9.250000E-5,2.004250
9.300000E-5,1.987062
9.350000E-5,1.980813
9.400000E-5,1.977062
9.450000E-5,1.955188
9.500000E-5,1.963000
9.550000E-5,1.962375
9.600000E-5,1.955812
9.650000E-5,1.956125
9.700000E-5,1.935188
9.750000E-5,1.920813
9.800000E-5,1.924875
9.850000E-5,1.927687
9.900000E-5,1.924562
9.950000E-5,1.913938
0.000100,1.903312
0.000100,1.893938
0.000101,1.882688
0.000102,1.878938
0.000102,1.865500
0.000102,1.865500
0.000103,1.889250
0.000103,1.844563
0.000104,1.851750
0.000104,1.833937
0.000105,1.827063
0.000105,1.833937
0.000106,1.820500
0.000107,1.813000
0.000107,1.817063
0.000107,1.803000
0.000108,1.788938
0.000108,1.802375
0.000109,1.792063
0.000109,1.771437
0.000110,1.761750
0.000110,1.764563
0.000111,1.771125
0.000111,1.754563
0.000112,1.743313
0.000112,1.739563
0.000113,1.736750
0.000113,1.733625
0.000114,1.715500
0.000114,1.716125
0.000115,1.702063
0.000115,1.698313
0.000116,1.698000
0.000116,1.688625
0.000117,1.666750
0.000117,1.681125
0.000118,1.677687
0.000118,1.657063
0.000119,1.656750
0.000119,1.645813
0.000120,1.635500
0.000120,1.622375
0.000121,1.632375
0.000121,1.632375
0.000122,1.628937
0.000122,1.622062
0.000123,1.607687
0.000123,1.622062
0.000124,1.597063
0.000124,1.591125
0.000125,1.587063
0.000125,1.601125
0.000126,1.569562
0.000126,1.587063
0.000127,1.563000
0.000127,1.559562
0.000128,1.548312
0.000129,1.545500
0.000129,1.545500
0.000130,1.538000
0.000130,1.524875
0.000131,1.528000
0.000131,1.517688
0.000131,1.520813
0.000132,1.493625
0.000132,1.510813
0.000133,1.495812
0.000133,1.493313
0.000134,1.493313
0.000134,1.497062
0.000135,1.479250
0.000135,1.465500
0.000136,1.472687
0.000136,1.453938
0.000137,1.459250
0.000137,1.458000
0.000138,1.450813
0.000139,1.445188
0.000139,1.451437
0.000140,1.441125
0.000140,1.441437
0.000140,1.423312
0.000141,1.437688
0.000141,1.423312
0.000142,1.417063
0.000142,1.402375
0.000143,1.406438
0.000143,1.406125
0.000144,1.392375
0.000144,1.385500
0.000145,1.388937
0.000145,1.378625
0.000146,1.368000
0.000146,1.378313
0.000147,1.357375
0.000147,1.343938
0.000148,1.357687
0.000149,1.346750
0.000149,1.333313
0.000150,1.336750
0.000150,1.319250
0.000150,1.322688
0.000151,1.319250
0.000151,1.312688
0.000152,1.305500
0.000152,1.315187
0.000153,1.285187
0.000153,1.298000
0.000154,1.285187
0.000154,1.277062
0.000155,1.277688
0.000155,1.270500
0.000156,1.260188
0.000156,1.270500
0.000157,1.270500
0.000157,1.270813
0.000158,1.263937
0.000159,1.263313
0.000159,1.253000
0.000160,1.253625
0.000160,1.236125
0.000160,1.235812
0.000161,1.242687
0.000161,1.222063
0.000162,1.214562
0.000162,1.218938
0.000163,1.193938
0.000163,1.193938
0.000164,1.190500
0.000164,1.215188
0.000165,1.190500
0.000165,1.180187
0.000166,1.183312
0.000166,1.169875
0.000167,1.176438
0.000168,1.169875
0.000168,1.176750
0.000169,1.162688
0.000169,1.159250
0.000169,1.153000
0.000170,1.155500
0.000170,1.145500
0.000171,1.134562
0.000171,1.135188
0.000172,1.138625
0.000172,1.141750
0.000173,1.130812
0.000173,1.139250
0.000174,1.118000
0.000174,1.123938
0.000175,1.107063
0.000175,1.124563
0.000176,1.103938
0.000176,1.099875
0.000177,1.090188
0.000178,1.103312
0.000178,1.086437
0.000179,1.085813
0.000179,1.075813
0.000179,1.076125
0.000180,1.068625
0.000180,1.075500
0.000181,1.073000
0.000181,1.061750
0.000182,1.054875
0.000182,1.051438
0.000183,1.055187
0.000183,1.054875
0.000184,1.037375
0.000184,1.055187
0.000185,1.034250
0.000185,1.034250
0.000186,1.033313
0.000186,1.010188
0.000187,1.016750
0.000188,1.012687
0.000188,1.017375
0.000189,1.016438
0.000189,1.002687
0.000189,0.996125
0.000190,0.998938
0.000190,0.985187
0.000191,0.978938
0.000191,0.985500
0.000192,0.988938
0.000192,0.981750
0.000193,0.978313
0.000193,0.985500
0.000194,0.957688
0.000194,0.968000
0.000195,0.957375
0.000195,0.957688
0.000196,0.950500
0.000196,0.953937
0.000197,0.943312
0.000198,0.948000
0.000198,0.943312
0.000199,0.936750
0.000199,0.943625
0.000199,0.933000
0.000200,0.933312
0.000200,0.915813
0.000201,0.937063
0.000201,0.918938
0.000202,0.901750
0.000202,0.905813
0.000203,0.898625
0.000203,0.894875
0.000204,0.901750
0.000204,0.898313
0.000205,0.891125
0.000205,0.884875
0.000206,0.891437
0.000206,0.888000
0.000207,0.884250
0.000208,0.870812
0.000208,0.881125
0.000208,0.873938
0.000209,0.856437
0.000209,0.864250
0.000210,0.856750
0.000210,0.856750
0.000211,0.863313
0.000211,0.853313
0.000212,0.842688
0.000212,0.846125
0.000213,0.843000
0.000213,0.842688
0.000214,0.832375
0.000214,0.829250
0.000215,0.818312
0.000215,0.835813
0.000216,0.825813
0.000216,0.821438
0.000217,0.814875
0.000218,0.811125
0.000218,0.808312
0.000218,0.807688
0.000219,0.798000
0.000219,0.815188
0.000220,0.808312
0.000220,0.796750
0.000221,0.790813
0.000221,0.794250
0.000222,0.776750
0.000222,0.790500
0.000223,0.783625
0.000223,0.783938
0.000224,0.776125
0.000224,0.783625
0.000225,0.780500
0.000225,0.766125
0.000226,0.759563
0.000227,0.762375
0.000227,0.759875
0.000228,0.776438
0.000228,0.769563
0.000228,0.752375
0.000229,0.752375
0.000229,0.748938
0.000230,0.752375
0.000230,0.745500
0.000231,0.738313
0.000231,0.748938
0.000232,0.741750
0.000232,0.727688
0.000233,0.742375
0.000233,0.724562
0.000234,0.734875
0.000234,0.735500
0.000235,0.720187
0.000235,0.721438
0.000236,0.699875
0.000237,0.724562
0.000237,0.717688
0.000237,0.703937
0.000238,0.682688
0.000238,0.700187
0.000239,0.689562
0.000239,0.697063
0.000240,0.689250
0.000240,0.693625
0.000241,0.689562
0.000241,0.679250
0.000242,0.679563
0.000242,0.668625
0.000243,0.672687
0.000243,0.668625
0.000244,0.668937
0.000244,0.661750
0.000245,0.672063
0.000246,0.672687
0.000246,0.651438
0.000246,0.654875
0.000247,0.648312
0.000247,0.643938
0.000248,0.634250
0.000248,0.648000
0.000249,0.641437
0.000249,0.640813
